{
   "resourceType": "Bundle",
   "id": "vhdir-managing-org-examples-bundle",
   "type": "batch",
   "timestamp": "2019-01-09T22:23:25.153766Z",
   "entry": [
      {
         "fullUrl": "http://vhdir-demo.fhir.org/fhir/Organization/vhdir-managing-org-9990010000",
         "resource": {
            "resourceType": "Organization",
            "id": "vhdir-managing-org-9990010000",
            "meta": {
               "profile": [
                  "http://hl7.org/fhir/uv/vhdir/StructureDefinition/vhdir-organization"
               ]
            },
            "identifier": [
               {
                  "extension": [
                     {
                        "url": "http://hl7.org/fhir/uv/vhdir/StructureDefinition/identifier-status",
                        "valueCode": "active"
                     }
                  ],
                  "use": "official",
                  "type": {
                     "coding": [
                        {
                           "system": "http://terminology.hl7.org/CodeSystem/v2-0203",
                           "code": "NPI",
                           "display": "National provider identifier"
                        }
                     ],
                     "text": "NPI"
                  },
                  "system": "http://hl7.org/fhir/sid/us-npi",
                  "value": "9990010000",
                  "period": {
                     "start": "2004-04-21T11:57:00-05:00"
                  },
                  "assigner": {
                     "display": "Centers for Medicare and Medicaid Services"
                  }
               }
            ],
            "active": true,
            "type": [
               {
                  "coding": [
                     {
                        "system": "http://terminology.hl7.org/CodeSystem/organization-type",
                        "code": "prov",
                        "display": "HealthCare Provider"
                     }
                  ],
                  "text": "HealthCare Provider"
               }
            ],
            "name": "King Hospital System",
            "telecom": [
               {
                  "system": "phone",
                  "value": "6075555555"
               }
            ],
            "address": [
               {
                  "extension": [
                     {
                        "extension": [
                           {
                              "url": "latitude",
                              "valueDecimal": 42.370567
                           },
                           {
                              "url": "longitude",
                              "valueDecimal": -71.026964
                           }
                        ],
                        "url": "http://hl7.org/fhir/StructureDefinition/geolocation"
                     }
                  ],
                  "use": "work",
                  "type": "both",
                  "text": "50 Park Plaza, Boston, MA 2101",
                  "line": [
                     "50 Park Plaza"
                  ],
                  "city": "Boston",
                  "state": "MA",
                  "postalCode": "2101",
                  "country": "USA"
               }
            ],
            "contact": [
               {
                  "purpose": {
                     "coding": [
                        {
                           "system": "http://terminology.hl7.org/CodeSystem/contactentity-type",
                           "code": "ADMIN",
                           "display": "Administrative"
                        }
                     ]
                  },
                  "name": {
                     "use": "official",
                     "text": "Kathy Contact",
                     "family": "Contact",
                     "given": [
                        "Kathy"
                     ]
                  },
                  "telecom": [
                     {
                        "extension": [
                           {
                              "extension": [
                                 {
                                    "url": "daysOfWeek",
                                    "valueCode": "mon"
                                 },
                                 {
                                    "url": "daysOfWeek",
                                    "valueCode": "tue"
                                 },
                                 {
                                    "url": "daysOfWeek",
                                    "valueCode": "wed"
                                 },
                                 {
                                    "url": "daysOfWeek",
                                    "valueCode": "thu"
                                 },
                                 {
                                    "url": "daysOfWeek",
                                    "valueCode": "fri"
                                 },
                                 {
                                    "url": "availableStartTime",
                                    "valueTime": "07:00:00"
                                 },
                                 {
                                    "url": "availableEndTime",
                                    "valueTime": "18:00:00"
                                 }
                              ],
                              "url": "http://hl7.org/fhir/uv/vhdir/StructureDefinition/contactpoint-availabletime"
                           }
                        ],
                        "system": "phone",
                        "value": "6075555555",
                        "use": "work"
                     }
                  ]
               }
            ],
            "endpoint": [
               {
                  "reference": "Endpoint/vhdir-managing-org-9990010000-direct",
                  "display": "King Hospital System Direct address"
               }
            ]
         },
         "request": {
            "method": "PUT",
            "url": "Organization/vhdir-managing-org-9990010000"
         }
      },
      {
         "fullUrl": "http://vhdir-demo.fhir.org/fhir/Organization/vhdir-managing-org-9990020000",
         "resource": {
            "resourceType": "Organization",
            "id": "vhdir-managing-org-9990020000",
            "meta": {
               "profile": [
                  "http://hl7.org/fhir/uv/vhdir/StructureDefinition/vhdir-organization"
               ]
            },
            "identifier": [
               {
                  "extension": [
                     {
                        "url": "http://hl7.org/fhir/uv/vhdir/StructureDefinition/identifier-status",
                        "valueCode": "active"
                     }
                  ],
                  "use": "official",
                  "type": {
                     "coding": [
                        {
                           "system": "http://terminology.hl7.org/CodeSystem/v2-0203",
                           "code": "NPI",
                           "display": "National provider identifier"
                        }
                     ],
                     "text": "NPI"
                  },
                  "system": "http://hl7.org/fhir/sid/us-npi",
                  "value": "9990020000",
                  "period": {
                     "start": "2004-04-21T11:57:00-05:00"
                  },
                  "assigner": {
                     "display": "Centers for Medicare and Medicaid Services"
                  }
               }
            ],
            "active": true,
            "type": [
               {
                  "coding": [
                     {
                        "system": "http://terminology.hl7.org/CodeSystem/organization-type",
                        "code": "prov",
                        "display": "HealthCare Provider"
                     }
                  ],
                  "text": "HealthCare Provider"
               }
            ],
            "name": "Acme Healthcare",
            "telecom": [
               {
                  "system": "phone",
                  "value": "9595555555"
               }
            ],
            "address": [
               {
                  "extension": [
                     {
                        "extension": [
                           {
                              "url": "latitude",
                              "valueDecimal": 41.791776
                           },
                           {
                              "url": "longitude",
                              "valueDecimal": -72.718832
                           }
                        ],
                        "url": "http://hl7.org/fhir/StructureDefinition/geolocation"
                     }
                  ],
                  "use": "work",
                  "type": "both",
                  "text": "263 Farmington Avenue, Farmington, CT 6030",
                  "line": [
                     "263 Farmington Avenue"
                  ],
                  "city": "Farmington",
                  "state": "CT",
                  "postalCode": "6030",
                  "country": "USA"
               }
            ],
            "contact": [
               {
                  "purpose": {
                     "coding": [
                        {
                           "system": "http://terminology.hl7.org/CodeSystem/contactentity-type",
                           "code": "ADMIN",
                           "display": "Administrative"
                        }
                     ]
                  },
                  "name": {
                     "use": "official",
                     "text": "Kathy Contact",
                     "family": "Contact",
                     "given": [
                        "Kathy"
                     ]
                  },
                  "telecom": [
                     {
                        "extension": [
                           {
                              "extension": [
                                 {
                                    "url": "daysOfWeek",
                                    "valueCode": "mon"
                                 },
                                 {
                                    "url": "daysOfWeek",
                                    "valueCode": "tue"
                                 },
                                 {
                                    "url": "daysOfWeek",
                                    "valueCode": "wed"
                                 },
                                 {
                                    "url": "daysOfWeek",
                                    "valueCode": "thu"
                                 },
                                 {
                                    "url": "daysOfWeek",
                                    "valueCode": "fri"
                                 },
                                 {
                                    "url": "availableStartTime",
                                    "valueTime": "07:00:00"
                                 },
                                 {
                                    "url": "availableEndTime",
                                    "valueTime": "18:00:00"
                                 }
                              ],
                              "url": "http://hl7.org/fhir/uv/vhdir/StructureDefinition/contactpoint-availabletime"
                           }
                        ],
                        "system": "phone",
                        "value": "9595555555",
                        "use": "work"
                     }
                  ]
               }
            ],
            "endpoint": [
               {
                  "reference": "Endpoint/vhdir-managing-org-9990020000-direct",
                  "display": "Acme Healthcare Direct address"
               }
            ]
         },
         "request": {
            "method": "PUT",
            "url": "Organization/vhdir-managing-org-9990020000"
         }
      },
      {
         "fullUrl": "http://vhdir-demo.fhir.org/fhir/Organization/vhdir-managing-org-9990030000",
         "resource": {
            "resourceType": "Organization",
            "id": "vhdir-managing-org-9990030000",
            "meta": {
               "profile": [
                  "http://hl7.org/fhir/uv/vhdir/StructureDefinition/vhdir-organization"
               ]
            },
            "identifier": [
               {
                  "extension": [
                     {
                        "url": "http://hl7.org/fhir/uv/vhdir/StructureDefinition/identifier-status",
                        "valueCode": "active"
                     }
                  ],
                  "use": "official",
                  "type": {
                     "coding": [
                        {
                           "system": "http://terminology.hl7.org/CodeSystem/v2-0203",
                           "code": "NPI",
                           "display": "National provider identifier"
                        }
                     ],
                     "text": "NPI"
                  },
                  "system": "http://hl7.org/fhir/sid/us-npi",
                  "value": "9990030000",
                  "period": {
                     "start": "2004-04-21T11:57:00-05:00"
                  },
                  "assigner": {
                     "display": "Centers for Medicare and Medicaid Services"
                  }
               }
            ],
            "active": true,
            "type": [
               {
                  "coding": [
                     {
                        "system": "http://terminology.hl7.org/CodeSystem/organization-type",
                        "code": "prov",
                        "display": "HealthCare Provider"
                     }
                  ],
                  "text": "HealthCare Provider"
               }
            ],
            "name": "Blue Hope",
            "telecom": [
               {
                  "system": "phone",
                  "value": "4015555555"
               }
            ],
            "address": [
               {
                  "extension": [
                     {
                        "extension": [
                           {
                              "url": "latitude",
                              "valueDecimal": 41.82275
                           },
                           {
                              "url": "longitude",
                              "valueDecimal": -71.414451
                           }
                        ],
                        "url": "http://hl7.org/fhir/StructureDefinition/geolocation"
                     }
                  ],
                  "use": "work",
                  "type": "both",
                  "text": "45 Willard Ave, Providence, RI 2901",
                  "line": [
                     "45 Willard Ave"
                  ],
                  "city": "Providence",
                  "state": "RI",
                  "postalCode": "2901",
                  "country": "USA"
               }
            ],
            "contact": [
               {
                  "purpose": {
                     "coding": [
                        {
                           "system": "http://terminology.hl7.org/CodeSystem/contactentity-type",
                           "code": "ADMIN",
                           "display": "Administrative"
                        }
                     ]
                  },
                  "name": {
                     "use": "official",
                     "text": "Kathy Contact",
                     "family": "Contact",
                     "given": [
                        "Kathy"
                     ]
                  },
                  "telecom": [
                     {
                        "extension": [
                           {
                              "extension": [
                                 {
                                    "url": "daysOfWeek",
                                    "valueCode": "mon"
                                 },
                                 {
                                    "url": "daysOfWeek",
                                    "valueCode": "tue"
                                 },
                                 {
                                    "url": "daysOfWeek",
                                    "valueCode": "wed"
                                 },
                                 {
                                    "url": "daysOfWeek",
                                    "valueCode": "thu"
                                 },
                                 {
                                    "url": "daysOfWeek",
                                    "valueCode": "fri"
                                 },
                                 {
                                    "url": "availableStartTime",
                                    "valueTime": "07:00:00"
                                 },
                                 {
                                    "url": "availableEndTime",
                                    "valueTime": "18:00:00"
                                 }
                              ],
                              "url": "http://hl7.org/fhir/uv/vhdir/StructureDefinition/contactpoint-availabletime"
                           }
                        ],
                        "system": "phone",
                        "value": "4015555555",
                        "use": "work"
                     }
                  ]
               }
            ],
            "endpoint": [
               {
                  "reference": "Endpoint/vhdir-managing-org-9990030000-direct",
                  "display": "Blue Hope Direct address"
               }
            ]
         },
         "request": {
            "method": "PUT",
            "url": "Organization/vhdir-managing-org-9990030000"
         }
      },
      {
         "fullUrl": "http://vhdir-demo.fhir.org/fhir/Organization/vhdir-managing-org-9990040000",
         "resource": {
            "resourceType": "Organization",
            "id": "vhdir-managing-org-9990040000",
            "meta": {
               "profile": [
                  "http://hl7.org/fhir/uv/vhdir/StructureDefinition/vhdir-organization"
               ]
            },
            "identifier": [
               {
                  "extension": [
                     {
                        "url": "http://hl7.org/fhir/uv/vhdir/StructureDefinition/identifier-status",
                        "valueCode": "active"
                     }
                  ],
                  "use": "official",
                  "type": {
                     "coding": [
                        {
                           "system": "http://terminology.hl7.org/CodeSystem/v2-0203",
                           "code": "NPI",
                           "display": "National provider identifier"
                        }
                     ],
                     "text": "NPI"
                  },
                  "system": "http://hl7.org/fhir/sid/us-npi",
                  "value": "9990040000",
                  "period": {
                     "start": "2004-04-21T11:57:00-05:00"
                  },
                  "assigner": {
                     "display": "Centers for Medicare and Medicaid Services"
                  }
               }
            ],
            "active": true,
            "type": [
               {
                  "coding": [
                     {
                        "system": "http://terminology.hl7.org/CodeSystem/organization-type",
                        "code": "prov",
                        "display": "HealthCare Provider"
                     }
                  ],
                  "text": "HealthCare Provider"
               }
            ],
            "name": "Western Massachusetts HIE",
            "telecom": [
               {
                  "system": "phone",
                  "value": "6075555555"
               }
            ],
            "address": [
               {
                  "extension": [
                     {
                        "extension": [
                           {
                              "url": "latitude",
                              "valueDecimal": 42.345079
                           },
                           {
                              "url": "longitude",
                              "valueDecimal": -71.107653
                           }
                        ],
                        "url": "http://hl7.org/fhir/StructureDefinition/geolocation"
                     }
                  ],
                  "use": "work",
                  "type": "both",
                  "text": "4 Yawkey Way, Boston, MA 2215",
                  "line": [
                     "4 Yawkey Way"
                  ],
                  "city": "Boston",
                  "state": "MA",
                  "postalCode": "2215",
                  "country": "USA"
               }
            ],
            "contact": [
               {
                  "purpose": {
                     "coding": [
                        {
                           "system": "http://terminology.hl7.org/CodeSystem/contactentity-type",
                           "code": "ADMIN",
                           "display": "Administrative"
                        }
                     ]
                  },
                  "name": {
                     "use": "official",
                     "text": "Kathy Contact",
                     "family": "Contact",
                     "given": [
                        "Kathy"
                     ]
                  },
                  "telecom": [
                     {
                        "extension": [
                           {
                              "extension": [
                                 {
                                    "url": "daysOfWeek",
                                    "valueCode": "mon"
                                 },
                                 {
                                    "url": "daysOfWeek",
                                    "valueCode": "tue"
                                 },
                                 {
                                    "url": "daysOfWeek",
                                    "valueCode": "wed"
                                 },
                                 {
                                    "url": "daysOfWeek",
                                    "valueCode": "thu"
                                 },
                                 {
                                    "url": "daysOfWeek",
                                    "valueCode": "fri"
                                 },
                                 {
                                    "url": "availableStartTime",
                                    "valueTime": "07:00:00"
                                 },
                                 {
                                    "url": "availableEndTime",
                                    "valueTime": "18:00:00"
                                 }
                              ],
                              "url": "http://hl7.org/fhir/uv/vhdir/StructureDefinition/contactpoint-availabletime"
                           }
                        ],
                        "system": "phone",
                        "value": "6075555555",
                        "use": "work"
                     }
                  ]
               }
            ],
            "endpoint": [
               {
                  "reference": "Endpoint/vhdir-managing-org-9990040000-direct",
                  "display": "Western Massachusetts HIE Direct address"
               }
            ]
         },
         "request": {
            "method": "PUT",
            "url": "Organization/vhdir-managing-org-9990040000"
         }
      },
      {
         "fullUrl": "http://vhdir-demo.fhir.org/fhir/Organization/vhdir-managing-org-9990050000",
         "resource": {
            "resourceType": "Organization",
            "id": "vhdir-managing-org-9990050000",
            "meta": {
               "profile": [
                  "http://hl7.org/fhir/uv/vhdir/StructureDefinition/vhdir-organization"
               ]
            },
            "identifier": [
               {
                  "extension": [
                     {
                        "url": "http://hl7.org/fhir/uv/vhdir/StructureDefinition/identifier-status",
                        "valueCode": "active"
                     }
                  ],
                  "use": "official",
                  "type": {
                     "coding": [
                        {
                           "system": "http://terminology.hl7.org/CodeSystem/v2-0203",
                           "code": "NPI",
                           "display": "National provider identifier"
                        }
                     ],
                     "text": "NPI"
                  },
                  "system": "http://hl7.org/fhir/sid/us-npi",
                  "value": "9990050000",
                  "period": {
                     "start": "2004-04-21T11:57:00-05:00"
                  },
                  "assigner": {
                     "display": "Centers for Medicare and Medicaid Services"
                  }
               }
            ],
            "active": true,
            "type": [
               {
                  "coding": [
                     {
                        "system": "http://terminology.hl7.org/CodeSystem/organization-type",
                        "code": "prov",
                        "display": "HealthCare Provider"
                     }
                  ],
                  "text": "HealthCare Provider"
               }
            ],
            "name": "Hartford Connecticut HIE",
            "telecom": [
               {
                  "system": "phone",
                  "value": "9595555555"
               }
            ],
            "address": [
               {
                  "extension": [
                     {
                        "extension": [
                           {
                              "url": "latitude",
                              "valueDecimal": 41.78007
                           },
                           {
                              "url": "longitude",
                              "valueDecimal": -72.677099
                           }
                        ],
                        "url": "http://hl7.org/fhir/StructureDefinition/geolocation"
                     }
                  ],
                  "use": "work",
                  "type": "both",
                  "text": "221 Trumbull Street, Hartford, CT 6101",
                  "line": [
                     "221 Trumbull Street"
                  ],
                  "city": "Hartford",
                  "state": "CT",
                  "postalCode": "6101",
                  "country": "USA"
               }
            ],
            "contact": [
               {
                  "purpose": {
                     "coding": [
                        {
                           "system": "http://terminology.hl7.org/CodeSystem/contactentity-type",
                           "code": "ADMIN",
                           "display": "Administrative"
                        }
                     ]
                  },
                  "name": {
                     "use": "official",
                     "text": "Kathy Contact",
                     "family": "Contact",
                     "given": [
                        "Kathy"
                     ]
                  },
                  "telecom": [
                     {
                        "extension": [
                           {
                              "extension": [
                                 {
                                    "url": "daysOfWeek",
                                    "valueCode": "mon"
                                 },
                                 {
                                    "url": "daysOfWeek",
                                    "valueCode": "tue"
                                 },
                                 {
                                    "url": "daysOfWeek",
                                    "valueCode": "wed"
                                 },
                                 {
                                    "url": "daysOfWeek",
                                    "valueCode": "thu"
                                 },
                                 {
                                    "url": "daysOfWeek",
                                    "valueCode": "fri"
                                 },
                                 {
                                    "url": "availableStartTime",
                                    "valueTime": "07:00:00"
                                 },
                                 {
                                    "url": "availableEndTime",
                                    "valueTime": "18:00:00"
                                 }
                              ],
                              "url": "http://hl7.org/fhir/uv/vhdir/StructureDefinition/contactpoint-availabletime"
                           }
                        ],
                        "system": "phone",
                        "value": "9595555555",
                        "use": "work"
                     }
                  ]
               }
            ],
            "endpoint": [
               {
                  "reference": "Endpoint/vhdir-managing-org-9990050000-direct",
                  "display": "Hartford Connecticut HIE Direct address"
               }
            ]
         },
         "request": {
            "method": "PUT",
            "url": "Organization/vhdir-managing-org-9990050000"
         }
      },
      {
         "fullUrl": "http://vhdir-demo.fhir.org/fhir/Organization/vhdir-managing-org-9990060000",
         "resource": {
            "resourceType": "Organization",
            "id": "vhdir-managing-org-9990060000",
            "meta": {
               "profile": [
                  "http://hl7.org/fhir/uv/vhdir/StructureDefinition/vhdir-organization"
               ]
            },
            "identifier": [
               {
                  "extension": [
                     {
                        "url": "http://hl7.org/fhir/uv/vhdir/StructureDefinition/identifier-status",
                        "valueCode": "active"
                     }
                  ],
                  "use": "official",
                  "type": {
                     "coding": [
                        {
                           "system": "http://terminology.hl7.org/CodeSystem/v2-0203",
                           "code": "NPI",
                           "display": "National provider identifier"
                        }
                     ],
                     "text": "NPI"
                  },
                  "system": "http://hl7.org/fhir/sid/us-npi",
                  "value": "9990060000",
                  "period": {
                     "start": "2004-04-21T11:57:00-05:00"
                  },
                  "assigner": {
                     "display": "Centers for Medicare and Medicaid Services"
                  }
               }
            ],
            "active": true,
            "type": [
               {
                  "coding": [
                     {
                        "system": "http://terminology.hl7.org/CodeSystem/organization-type",
                        "code": "prov",
                        "display": "HealthCare Provider"
                     }
                  ],
                  "text": "HealthCare Provider"
               }
            ],
            "name": "Rhode Island HIE",
            "telecom": [
               {
                  "system": "phone",
                  "value": "4015555555"
               }
            ],
            "address": [
               {
                  "extension": [
                     {
                        "extension": [
                           {
                              "url": "latitude",
                              "valueDecimal": 41.82275
                           },
                           {
                              "url": "longitude",
                              "valueDecimal": -71.414451
                           }
                        ],
                        "url": "http://hl7.org/fhir/StructureDefinition/geolocation"
                     }
                  ],
                  "use": "work",
                  "type": "both",
                  "text": "0 Holden Street, Suite 300, Providence, RI 2901",
                  "line": [
                     "0 Holden Street, Suite 300"
                  ],
                  "city": "Providence",
                  "state": "RI",
                  "postalCode": "2901",
                  "country": "USA"
               }
            ],
            "contact": [
               {
                  "purpose": {
                     "coding": [
                        {
                           "system": "http://terminology.hl7.org/CodeSystem/contactentity-type",
                           "code": "ADMIN",
                           "display": "Administrative"
                        }
                     ]
                  },
                  "name": {
                     "use": "official",
                     "text": "Kathy Contact",
                     "family": "Contact",
                     "given": [
                        "Kathy"
                     ]
                  },
                  "telecom": [
                     {
                        "extension": [
                           {
                              "extension": [
                                 {
                                    "url": "daysOfWeek",
                                    "valueCode": "mon"
                                 },
                                 {
                                    "url": "daysOfWeek",
                                    "valueCode": "tue"
                                 },
                                 {
                                    "url": "daysOfWeek",
                                    "valueCode": "wed"
                                 },
                                 {
                                    "url": "daysOfWeek",
                                    "valueCode": "thu"
                                 },
                                 {
                                    "url": "daysOfWeek",
                                    "valueCode": "fri"
                                 },
                                 {
                                    "url": "availableStartTime",
                                    "valueTime": "07:00:00"
                                 },
                                 {
                                    "url": "availableEndTime",
                                    "valueTime": "18:00:00"
                                 }
                              ],
                              "url": "http://hl7.org/fhir/uv/vhdir/StructureDefinition/contactpoint-availabletime"
                           }
                        ],
                        "system": "phone",
                        "value": "4015555555",
                        "use": "work"
                     }
                  ]
               }
            ],
            "endpoint": [
               {
                  "reference": "Endpoint/vhdir-managing-org-9990060000-direct",
                  "display": "Rhode Island HIE Direct address"
               }
            ]
         },
         "request": {
            "method": "PUT",
            "url": "Organization/vhdir-managing-org-9990060000"
         }
      },
      {
         "fullUrl": "http://vhdir-demo.fhir.org/fhir/Organization/vhdir-managing-org-9990070000",
         "resource": {
            "resourceType": "Organization",
            "id": "vhdir-managing-org-9990070000",
            "meta": {
               "profile": [
                  "http://hl7.org/fhir/uv/vhdir/StructureDefinition/vhdir-organization"
               ]
            },
            "identifier": [
               {
                  "extension": [
                     {
                        "url": "http://hl7.org/fhir/uv/vhdir/StructureDefinition/identifier-status",
                        "valueCode": "active"
                     }
                  ],
                  "use": "official",
                  "type": {
                     "coding": [
                        {
                           "system": "http://terminology.hl7.org/CodeSystem/v2-0203",
                           "code": "NPI",
                           "display": "National provider identifier"
                        }
                     ],
                     "text": "NPI"
                  },
                  "system": "http://hl7.org/fhir/sid/us-npi",
                  "value": "9990070000",
                  "period": {
                     "start": "2004-04-21T11:57:00-05:00"
                  },
                  "assigner": {
                     "display": "Centers for Medicare and Medicaid Services"
                  }
               }
            ],
            "active": true,
            "type": [
               {
                  "coding": [
                     {
                        "system": "http://terminology.hl7.org/CodeSystem/organization-type",
                        "code": "pay",
                        "display": "Payer"
                     }
                  ],
                  "text": "Payer"
               }
            ],
            "name": "Group Insurance Commission",
            "telecom": [
               {
                  "system": "phone",
                  "value": "6177272310"
               }
            ],
            "address": [
               {
                  "extension": [
                     {
                        "extension": [
                           {
                              "url": "latitude",
                              "valueDecimal": 42.345079
                           },
                           {
                              "url": "longitude",
                              "valueDecimal": -71.107653
                           }
                        ],
                        "url": "http://hl7.org/fhir/StructureDefinition/geolocation"
                     }
                  ],
                  "use": "work",
                  "type": "both",
                  "text": "19 Stanford St, Boston, MA 2215",
                  "line": [
                     "19 Stanford St"
                  ],
                  "city": "Boston",
                  "state": "MA",
                  "postalCode": "2215",
                  "country": "USA"
               }
            ],
            "contact": [
               {
                  "purpose": {
                     "coding": [
                        {
                           "system": "http://terminology.hl7.org/CodeSystem/contactentity-type",
                           "code": "ADMIN",
                           "display": "Administrative"
                        }
                     ]
                  },
                  "name": {
                     "use": "official",
                     "text": "Kathy Contact",
                     "family": "Contact",
                     "given": [
                        "Kathy"
                     ]
                  },
                  "telecom": [
                     {
                        "extension": [
                           {
                              "extension": [
                                 {
                                    "url": "daysOfWeek",
                                    "valueCode": "mon"
                                 },
                                 {
                                    "url": "daysOfWeek",
                                    "valueCode": "tue"
                                 },
                                 {
                                    "url": "daysOfWeek",
                                    "valueCode": "wed"
                                 },
                                 {
                                    "url": "daysOfWeek",
                                    "valueCode": "thu"
                                 },
                                 {
                                    "url": "daysOfWeek",
                                    "valueCode": "fri"
                                 },
                                 {
                                    "url": "availableStartTime",
                                    "valueTime": "07:00:00"
                                 },
                                 {
                                    "url": "availableEndTime",
                                    "valueTime": "18:00:00"
                                 }
                              ],
                              "url": "http://hl7.org/fhir/uv/vhdir/StructureDefinition/contactpoint-availabletime"
                           }
                        ],
                        "system": "phone",
                        "value": "6177272310",
                        "use": "work"
                     }
                  ]
               }
            ],
            "endpoint": [
               {
                  "reference": "Endpoint/vhdir-managing-org-9990070000-direct",
                  "display": "Group Insurance Commission Direct address"
               }
            ]
         },
         "request": {
            "method": "PUT",
            "url": "Organization/vhdir-managing-org-9990070000"
         }
      },
      {
         "fullUrl": "http://vhdir-demo.fhir.org/fhir/Organization/vhdir-managing-org-9990080000",
         "resource": {
            "resourceType": "Organization",
            "id": "vhdir-managing-org-9990080000",
            "meta": {
               "profile": [
                  "http://hl7.org/fhir/uv/vhdir/StructureDefinition/vhdir-organization"
               ]
            },
            "identifier": [
               {
                  "extension": [
                     {
                        "url": "http://hl7.org/fhir/uv/vhdir/StructureDefinition/identifier-status",
                        "valueCode": "active"
                     }
                  ],
                  "use": "official",
                  "type": {
                     "coding": [
                        {
                           "system": "http://terminology.hl7.org/CodeSystem/v2-0203",
                           "code": "NPI",
                           "display": "National provider identifier"
                        }
                     ],
                     "text": "NPI"
                  },
                  "system": "http://hl7.org/fhir/sid/us-npi",
                  "value": "9990080000",
                  "period": {
                     "start": "2004-04-21T11:57:00-05:00"
                  },
                  "assigner": {
                     "display": "Centers for Medicare and Medicaid Services"
                  }
               }
            ],
            "active": true,
            "type": [
               {
                  "coding": [
                     {
                        "system": "http://terminology.hl7.org/CodeSystem/organization-type",
                        "code": "pay",
                        "display": "Payer"
                     }
                  ],
                  "text": "Payer"
               }
            ],
            "name": "Connecticut Office of the State Comptroller",
            "telecom": [
               {
                  "system": "phone",
                  "value": "8607023300"
               }
            ],
            "address": [
               {
                  "extension": [
                     {
                        "extension": [
                           {
                              "url": "latitude",
                              "valueDecimal": 41.745049
                           },
                           {
                              "url": "longitude",
                              "valueDecimal": -72.687787
                           }
                        ],
                        "url": "http://hl7.org/fhir/StructureDefinition/geolocation"
                     }
                  ],
                  "use": "work",
                  "type": "both",
                  "text": "55 Elm Street , Hartford, CT 6106",
                  "line": [
                     "55 Elm Street "
                  ],
                  "city": "Hartford",
                  "state": "CT",
                  "postalCode": "6106",
                  "country": "USA"
               }
            ],
            "contact": [
               {
                  "purpose": {
                     "coding": [
                        {
                           "system": "http://terminology.hl7.org/CodeSystem/contactentity-type",
                           "code": "ADMIN",
                           "display": "Administrative"
                        }
                     ]
                  },
                  "name": {
                     "use": "official",
                     "text": "Kathy Contact",
                     "family": "Contact",
                     "given": [
                        "Kathy"
                     ]
                  },
                  "telecom": [
                     {
                        "extension": [
                           {
                              "extension": [
                                 {
                                    "url": "daysOfWeek",
                                    "valueCode": "mon"
                                 },
                                 {
                                    "url": "daysOfWeek",
                                    "valueCode": "tue"
                                 },
                                 {
                                    "url": "daysOfWeek",
                                    "valueCode": "wed"
                                 },
                                 {
                                    "url": "daysOfWeek",
                                    "valueCode": "thu"
                                 },
                                 {
                                    "url": "daysOfWeek",
                                    "valueCode": "fri"
                                 },
                                 {
                                    "url": "availableStartTime",
                                    "valueTime": "07:00:00"
                                 },
                                 {
                                    "url": "availableEndTime",
                                    "valueTime": "18:00:00"
                                 }
                              ],
                              "url": "http://hl7.org/fhir/uv/vhdir/StructureDefinition/contactpoint-availabletime"
                           }
                        ],
                        "system": "phone",
                        "value": "8607023300",
                        "use": "work"
                     }
                  ]
               }
            ],
            "endpoint": [
               {
                  "reference": "Endpoint/vhdir-managing-org-9990080000-direct",
                  "display": "Connecticut Office of the State Comptroller Direct address"
               }
            ]
         },
         "request": {
            "method": "PUT",
            "url": "Organization/vhdir-managing-org-9990080000"
         }
      },
      {
         "fullUrl": "http://vhdir-demo.fhir.org/fhir/Organization/vhdir-managing-org-9990090000",
         "resource": {
            "resourceType": "Organization",
            "id": "vhdir-managing-org-9990090000",
            "meta": {
               "profile": [
                  "http://hl7.org/fhir/uv/vhdir/StructureDefinition/vhdir-organization"
               ]
            },
            "identifier": [
               {
                  "extension": [
                     {
                        "url": "http://hl7.org/fhir/uv/vhdir/StructureDefinition/identifier-status",
                        "valueCode": "active"
                     }
                  ],
                  "use": "official",
                  "type": {
                     "coding": [
                        {
                           "system": "http://terminology.hl7.org/CodeSystem/v2-0203",
                           "code": "NPI",
                           "display": "National provider identifier"
                        }
                     ],
                     "text": "NPI"
                  },
                  "system": "http://hl7.org/fhir/sid/us-npi",
                  "value": "9990090000",
                  "period": {
                     "start": "2004-04-21T11:57:00-05:00"
                  },
                  "assigner": {
                     "display": "Centers for Medicare and Medicaid Services"
                  }
               }
            ],
            "active": true,
            "type": [
               {
                  "coding": [
                     {
                        "system": "http://terminology.hl7.org/CodeSystem/organization-type",
                        "code": "pay",
                        "display": "Payer"
                     }
                  ],
                  "text": "Payer"
               }
            ],
            "name": "Office of Employee Benefits",
            "telecom": [
               {
                  "system": "phone",
                  "value": "4015748530"
               }
            ],
            "address": [
               {
                  "extension": [
                     {
                        "extension": [
                           {
                              "url": "latitude",
                              "valueDecimal": 41.837399
                           },
                           {
                              "url": "longitude",
                              "valueDecimal": -71.4399
                           }
                        ],
                        "url": "http://hl7.org/fhir/StructureDefinition/geolocation"
                     }
                  ],
                  "use": "work",
                  "type": "both",
                  "text": "One Capitol Hill, 3rd Floor, Providence, RI 2908",
                  "line": [
                     "One Capitol Hill, 3rd Floor"
                  ],
                  "city": "Providence",
                  "state": "RI",
                  "postalCode": "2908",
                  "country": "USA"
               }
            ],
            "contact": [
               {
                  "purpose": {
                     "coding": [
                        {
                           "system": "http://terminology.hl7.org/CodeSystem/contactentity-type",
                           "code": "ADMIN",
                           "display": "Administrative"
                        }
                     ]
                  },
                  "name": {
                     "use": "official",
                     "text": "Kathy Contact",
                     "family": "Contact",
                     "given": [
                        "Kathy"
                     ]
                  },
                  "telecom": [
                     {
                        "extension": [
                           {
                              "extension": [
                                 {
                                    "url": "daysOfWeek",
                                    "valueCode": "mon"
                                 },
                                 {
                                    "url": "daysOfWeek",
                                    "valueCode": "tue"
                                 },
                                 {
                                    "url": "daysOfWeek",
                                    "valueCode": "wed"
                                 },
                                 {
                                    "url": "daysOfWeek",
                                    "valueCode": "thu"
                                 },
                                 {
                                    "url": "daysOfWeek",
                                    "valueCode": "fri"
                                 },
                                 {
                                    "url": "availableStartTime",
                                    "valueTime": "07:00:00"
                                 },
                                 {
                                    "url": "availableEndTime",
                                    "valueTime": "18:00:00"
                                 }
                              ],
                              "url": "http://hl7.org/fhir/uv/vhdir/StructureDefinition/contactpoint-availabletime"
                           }
                        ],
                        "system": "phone",
                        "value": "4015748530",
                        "use": "work"
                     }
                  ]
               }
            ],
            "endpoint": [
               {
                  "reference": "Endpoint/vhdir-managing-org-9990090000-direct",
                  "display": "Office of Employee Benefits Direct address"
               }
            ]
         },
         "request": {
            "method": "PUT",
            "url": "Organization/vhdir-managing-org-9990090000"
         }
      },
      {
         "fullUrl": "http://vhdir-demo.fhir.org/fhir/Organization/vhdir-managing-org-9990110000",
         "resource": {
            "resourceType": "Organization",
            "id": "vhdir-managing-org-9990110000",
            "meta": {
               "profile": [
                  "http://hl7.org/fhir/uv/vhdir/StructureDefinition/vhdir-organization"
               ]
            },
            "identifier": [
               {
                  "extension": [
                     {
                        "url": "http://hl7.org/fhir/uv/vhdir/StructureDefinition/identifier-status",
                        "valueCode": "active"
                     }
                  ],
                  "use": "official",
                  "type": {
                     "coding": [
                        {
                           "system": "http://terminology.hl7.org/CodeSystem/v2-0203",
                           "code": "NPI",
                           "display": "National provider identifier"
                        }
                     ],
                     "text": "NPI"
                  },
                  "system": "http://hl7.org/fhir/sid/us-npi",
                  "value": "9990110000",
                  "period": {
                     "start": "2004-04-21T11:57:00-05:00"
                  },
                  "assigner": {
                     "display": "Centers for Medicare and Medicaid Services"
                  }
               }
            ],
            "active": true,
            "type": [
               {
                  "coding": [
                     {
                        "system": "http://terminology.hl7.org/CodeSystem/organization-type",
                        "code": "pay",
                        "display": "Payer"
                     }
                  ],
                  "text": "Payer"
               }
            ],
            "name": "United Technologies Health Insurance",
            "telecom": [
               {
                  "system": "phone",
                  "value": "8607287000"
               }
            ],
            "address": [
               {
                  "extension": [
                     {
                        "extension": [
                           {
                              "url": "latitude",
                              "valueDecimal": 41.726769
                           },
                           {
                              "url": "longitude",
                              "valueDecimal": -72.829543
                           }
                        ],
                        "url": "http://hl7.org/fhir/StructureDefinition/geolocation"
                     }
                  ],
                  "use": "work",
                  "type": "both",
                  "text": "10 Farm Springs Rd., Farmington, CT 6032",
                  "line": [
                     "10 Farm Springs Rd."
                  ],
                  "city": "Farmington",
                  "state": "CT",
                  "postalCode": "6032",
                  "country": "USA"
               }
            ],
            "contact": [
               {
                  "purpose": {
                     "coding": [
                        {
                           "system": "http://terminology.hl7.org/CodeSystem/contactentity-type",
                           "code": "ADMIN",
                           "display": "Administrative"
                        }
                     ]
                  },
                  "name": {
                     "use": "official",
                     "text": "Kathy Contact",
                     "family": "Contact",
                     "given": [
                        "Kathy"
                     ]
                  },
                  "telecom": [
                     {
                        "extension": [
                           {
                              "extension": [
                                 {
                                    "url": "daysOfWeek",
                                    "valueCode": "mon"
                                 },
                                 {
                                    "url": "daysOfWeek",
                                    "valueCode": "tue"
                                 },
                                 {
                                    "url": "daysOfWeek",
                                    "valueCode": "wed"
                                 },
                                 {
                                    "url": "daysOfWeek",
                                    "valueCode": "thu"
                                 },
                                 {
                                    "url": "daysOfWeek",
                                    "valueCode": "fri"
                                 },
                                 {
                                    "url": "availableStartTime",
                                    "valueTime": "07:00:00"
                                 },
                                 {
                                    "url": "availableEndTime",
                                    "valueTime": "18:00:00"
                                 }
                              ],
                              "url": "http://hl7.org/fhir/uv/vhdir/StructureDefinition/contactpoint-availabletime"
                           }
                        ],
                        "system": "phone",
                        "value": "8607287000",
                        "use": "work"
                     }
                  ]
               }
            ],
            "endpoint": [
               {
                  "reference": "Endpoint/vhdir-managing-org-9990110000-direct",
                  "display": "United Technologies Health Insurance Direct address"
               }
            ]
         },
         "request": {
            "method": "PUT",
            "url": "Organization/vhdir-managing-org-9990110000"
         }
      },
      {
         "fullUrl": "http://vhdir-demo.fhir.org/fhir/Organization/vhdir-managing-org-9990120000",
         "resource": {
            "resourceType": "Organization",
            "id": "vhdir-managing-org-9990120000",
            "meta": {
               "profile": [
                  "http://hl7.org/fhir/uv/vhdir/StructureDefinition/vhdir-organization"
               ]
            },
            "identifier": [
               {
                  "extension": [
                     {
                        "url": "http://hl7.org/fhir/uv/vhdir/StructureDefinition/identifier-status",
                        "valueCode": "active"
                     }
                  ],
                  "use": "official",
                  "type": {
                     "coding": [
                        {
                           "system": "http://terminology.hl7.org/CodeSystem/v2-0203",
                           "code": "NPI",
                           "display": "National provider identifier"
                        }
                     ],
                     "text": "NPI"
                  },
                  "system": "http://hl7.org/fhir/sid/us-npi",
                  "value": "9990120000",
                  "period": {
                     "start": "2004-04-21T11:57:00-05:00"
                  },
                  "assigner": {
                     "display": "Centers for Medicare and Medicaid Services"
                  }
               }
            ],
            "active": true,
            "type": [
               {
                  "coding": [
                     {
                        "system": "http://terminology.hl7.org/CodeSystem/organization-type",
                        "code": "ins",
                        "display": "Insurance Company"
                     }
                  ],
                  "text": "Insurance Company"
               }
            ],
            "name": "Acme Insurance Co of Massachusetts",
            "telecom": [
               {
                  "system": "phone",
                  "value": "6075555555"
               }
            ],
            "address": [
               {
                  "extension": [
                     {
                        "extension": [
                           {
                              "url": "latitude",
                              "valueDecimal": 42.370567
                           },
                           {
                              "url": "longitude",
                              "valueDecimal": -71.026964
                           }
                        ],
                        "url": "http://hl7.org/fhir/StructureDefinition/geolocation"
                     }
                  ],
                  "use": "work",
                  "type": "both",
                  "text": "120 St James Ave, Boston, MA 2101",
                  "line": [
                     "120 St James Ave"
                  ],
                  "city": "Boston",
                  "state": "MA",
                  "postalCode": "2101",
                  "country": "USA"
               }
            ],
            "partOf": {
               "reference": "Organization/vhdir-managing-org-9990210000",
               "display": "Acme Insurance Co"
            },
            "contact": [
               {
                  "purpose": {
                     "coding": [
                        {
                           "system": "http://terminology.hl7.org/CodeSystem/contactentity-type",
                           "code": "ADMIN",
                           "display": "Administrative"
                        }
                     ]
                  },
                  "name": {
                     "use": "official",
                     "text": "Kathy Contact",
                     "family": "Contact",
                     "given": [
                        "Kathy"
                     ]
                  },
                  "telecom": [
                     {
                        "extension": [
                           {
                              "extension": [
                                 {
                                    "url": "daysOfWeek",
                                    "valueCode": "mon"
                                 },
                                 {
                                    "url": "daysOfWeek",
                                    "valueCode": "tue"
                                 },
                                 {
                                    "url": "daysOfWeek",
                                    "valueCode": "wed"
                                 },
                                 {
                                    "url": "daysOfWeek",
                                    "valueCode": "thu"
                                 },
                                 {
                                    "url": "daysOfWeek",
                                    "valueCode": "fri"
                                 },
                                 {
                                    "url": "availableStartTime",
                                    "valueTime": "07:00:00"
                                 },
                                 {
                                    "url": "availableEndTime",
                                    "valueTime": "18:00:00"
                                 }
                              ],
                              "url": "http://hl7.org/fhir/uv/vhdir/StructureDefinition/contactpoint-availabletime"
                           }
                        ],
                        "system": "phone",
                        "value": "6075555555",
                        "use": "work"
                     }
                  ]
               }
            ],
            "endpoint": [
               {
                  "reference": "Endpoint/vhdir-managing-org-9990120000-direct",
                  "display": "Acme Insurance Co of Massachusetts Direct address"
               }
            ]
         },
         "request": {
            "method": "PUT",
            "url": "Organization/vhdir-managing-org-9990120000"
         }
      },
      {
         "fullUrl": "http://vhdir-demo.fhir.org/fhir/Organization/vhdir-managing-org-9990130000",
         "resource": {
            "resourceType": "Organization",
            "id": "vhdir-managing-org-9990130000",
            "meta": {
               "profile": [
                  "http://hl7.org/fhir/uv/vhdir/StructureDefinition/vhdir-organization"
               ]
            },
            "identifier": [
               {
                  "extension": [
                     {
                        "url": "http://hl7.org/fhir/uv/vhdir/StructureDefinition/identifier-status",
                        "valueCode": "active"
                     }
                  ],
                  "use": "official",
                  "type": {
                     "coding": [
                        {
                           "system": "http://terminology.hl7.org/CodeSystem/v2-0203",
                           "code": "NPI",
                           "display": "National provider identifier"
                        }
                     ],
                     "text": "NPI"
                  },
                  "system": "http://hl7.org/fhir/sid/us-npi",
                  "value": "9990130000",
                  "period": {
                     "start": "2004-04-21T11:57:00-05:00"
                  },
                  "assigner": {
                     "display": "Centers for Medicare and Medicaid Services"
                  }
               }
            ],
            "active": true,
            "type": [
               {
                  "coding": [
                     {
                        "system": "http://terminology.hl7.org/CodeSystem/organization-type",
                        "code": "ins",
                        "display": "Insurance Company"
                     }
                  ],
                  "text": "Insurance Company"
               }
            ],
            "name": "Green Circle of Massachusetts",
            "telecom": [
               {
                  "system": "phone",
                  "value": "6075555555"
               }
            ],
            "address": [
               {
                  "extension": [
                     {
                        "extension": [
                           {
                              "url": "latitude",
                              "valueDecimal": 42.370567
                           },
                           {
                              "url": "longitude",
                              "valueDecimal": -71.026964
                           }
                        ],
                        "url": "http://hl7.org/fhir/StructureDefinition/geolocation"
                     }
                  ],
                  "use": "work",
                  "type": "both",
                  "text": "800 Washington St, Boston, MA 2101",
                  "line": [
                     "800 Washington St"
                  ],
                  "city": "Boston",
                  "state": "MA",
                  "postalCode": "2101",
                  "country": "USA"
               }
            ],
            "partOf": {
               "reference": "Organization/vhdir-managing-org-9990220000",
               "display": "Green Circle Ins"
            },
            "contact": [
               {
                  "purpose": {
                     "coding": [
                        {
                           "system": "http://terminology.hl7.org/CodeSystem/contactentity-type",
                           "code": "ADMIN",
                           "display": "Administrative"
                        }
                     ]
                  },
                  "name": {
                     "use": "official",
                     "text": "Kathy Contact",
                     "family": "Contact",
                     "given": [
                        "Kathy"
                     ]
                  },
                  "telecom": [
                     {
                        "extension": [
                           {
                              "extension": [
                                 {
                                    "url": "daysOfWeek",
                                    "valueCode": "mon"
                                 },
                                 {
                                    "url": "daysOfWeek",
                                    "valueCode": "tue"
                                 },
                                 {
                                    "url": "daysOfWeek",
                                    "valueCode": "wed"
                                 },
                                 {
                                    "url": "daysOfWeek",
                                    "valueCode": "thu"
                                 },
                                 {
                                    "url": "daysOfWeek",
                                    "valueCode": "fri"
                                 },
                                 {
                                    "url": "availableStartTime",
                                    "valueTime": "07:00:00"
                                 },
                                 {
                                    "url": "availableEndTime",
                                    "valueTime": "18:00:00"
                                 }
                              ],
                              "url": "http://hl7.org/fhir/uv/vhdir/StructureDefinition/contactpoint-availabletime"
                           }
                        ],
                        "system": "phone",
                        "value": "6075555555",
                        "use": "work"
                     }
                  ]
               }
            ],
            "endpoint": [
               {
                  "reference": "Endpoint/vhdir-managing-org-9990130000-direct",
                  "display": "Green Circle of Massachusetts Direct address"
               }
            ]
         },
         "request": {
            "method": "PUT",
            "url": "Organization/vhdir-managing-org-9990130000"
         }
      },
      {
         "fullUrl": "http://vhdir-demo.fhir.org/fhir/Organization/vhdir-managing-org-9990140000",
         "resource": {
            "resourceType": "Organization",
            "id": "vhdir-managing-org-9990140000",
            "meta": {
               "profile": [
                  "http://hl7.org/fhir/uv/vhdir/StructureDefinition/vhdir-organization"
               ]
            },
            "identifier": [
               {
                  "extension": [
                     {
                        "url": "http://hl7.org/fhir/uv/vhdir/StructureDefinition/identifier-status",
                        "valueCode": "active"
                     }
                  ],
                  "use": "official",
                  "type": {
                     "coding": [
                        {
                           "system": "http://terminology.hl7.org/CodeSystem/v2-0203",
                           "code": "NPI",
                           "display": "National provider identifier"
                        }
                     ],
                     "text": "NPI"
                  },
                  "system": "http://hl7.org/fhir/sid/us-npi",
                  "value": "9990140000",
                  "period": {
                     "start": "2004-04-21T11:57:00-05:00"
                  },
                  "assigner": {
                     "display": "Centers for Medicare and Medicaid Services"
                  }
               }
            ],
            "active": true,
            "type": [
               {
                  "coding": [
                     {
                        "system": "http://terminology.hl7.org/CodeSystem/organization-type",
                        "code": "ins",
                        "display": "Insurance Company"
                     }
                  ],
                  "text": "Insurance Company"
               }
            ],
            "name": "Persona of Massachusetts",
            "telecom": [
               {
                  "system": "phone",
                  "value": "6075555555"
               }
            ],
            "address": [
               {
                  "extension": [
                     {
                        "extension": [
                           {
                              "url": "latitude",
                              "valueDecimal": 42.370567
                           },
                           {
                              "url": "longitude",
                              "valueDecimal": -71.026964
                           }
                        ],
                        "url": "http://hl7.org/fhir/StructureDefinition/geolocation"
                     }
                  ],
                  "use": "work",
                  "type": "both",
                  "text": "120 Royall St, Boston, MA 2101",
                  "line": [
                     "120 Royall St"
                  ],
                  "city": "Boston",
                  "state": "MA",
                  "postalCode": "2101",
                  "country": "USA"
               }
            ],
            "partOf": {
               "reference": "Organization/vhdir-managing-org-9990230000",
               "display": "Persona"
            },
            "contact": [
               {
                  "purpose": {
                     "coding": [
                        {
                           "system": "http://terminology.hl7.org/CodeSystem/contactentity-type",
                           "code": "ADMIN",
                           "display": "Administrative"
                        }
                     ]
                  },
                  "name": {
                     "use": "official",
                     "text": "Kathy Contact",
                     "family": "Contact",
                     "given": [
                        "Kathy"
                     ]
                  },
                  "telecom": [
                     {
                        "extension": [
                           {
                              "extension": [
                                 {
                                    "url": "daysOfWeek",
                                    "valueCode": "mon"
                                 },
                                 {
                                    "url": "daysOfWeek",
                                    "valueCode": "tue"
                                 },
                                 {
                                    "url": "daysOfWeek",
                                    "valueCode": "wed"
                                 },
                                 {
                                    "url": "daysOfWeek",
                                    "valueCode": "thu"
                                 },
                                 {
                                    "url": "daysOfWeek",
                                    "valueCode": "fri"
                                 },
                                 {
                                    "url": "availableStartTime",
                                    "valueTime": "07:00:00"
                                 },
                                 {
                                    "url": "availableEndTime",
                                    "valueTime": "18:00:00"
                                 }
                              ],
                              "url": "http://hl7.org/fhir/uv/vhdir/StructureDefinition/contactpoint-availabletime"
                           }
                        ],
                        "system": "phone",
                        "value": "6075555555",
                        "use": "work"
                     }
                  ]
               }
            ],
            "endpoint": [
               {
                  "reference": "Endpoint/vhdir-managing-org-9990140000-direct",
                  "display": "Persona of Massachusetts Direct address"
               }
            ]
         },
         "request": {
            "method": "PUT",
            "url": "Organization/vhdir-managing-org-9990140000"
         }
      },
      {
         "fullUrl": "http://vhdir-demo.fhir.org/fhir/Organization/vhdir-managing-org-9990150000",
         "resource": {
            "resourceType": "Organization",
            "id": "vhdir-managing-org-9990150000",
            "meta": {
               "profile": [
                  "http://hl7.org/fhir/uv/vhdir/StructureDefinition/vhdir-organization"
               ]
            },
            "identifier": [
               {
                  "extension": [
                     {
                        "url": "http://hl7.org/fhir/uv/vhdir/StructureDefinition/identifier-status",
                        "valueCode": "active"
                     }
                  ],
                  "use": "official",
                  "type": {
                     "coding": [
                        {
                           "system": "http://terminology.hl7.org/CodeSystem/v2-0203",
                           "code": "NPI",
                           "display": "National provider identifier"
                        }
                     ],
                     "text": "NPI"
                  },
                  "system": "http://hl7.org/fhir/sid/us-npi",
                  "value": "9990150000",
                  "period": {
                     "start": "2004-04-21T11:57:00-05:00"
                  },
                  "assigner": {
                     "display": "Centers for Medicare and Medicaid Services"
                  }
               }
            ],
            "active": true,
            "type": [
               {
                  "coding": [
                     {
                        "system": "http://terminology.hl7.org/CodeSystem/organization-type",
                        "code": "ins",
                        "display": "Insurance Company"
                     }
                  ],
                  "text": "Insurance Company"
               }
            ],
            "name": "Acme Insurance Co of Connecticut",
            "telecom": [
               {
                  "system": "phone",
                  "value": "9595555555"
               }
            ],
            "address": [
               {
                  "extension": [
                     {
                        "extension": [
                           {
                              "url": "latitude",
                              "valueDecimal": 41.78007
                           },
                           {
                              "url": "longitude",
                              "valueDecimal": -72.677099
                           }
                        ],
                        "url": "http://hl7.org/fhir/StructureDefinition/geolocation"
                     }
                  ],
                  "use": "work",
                  "type": "both",
                  "text": "690 Asylum Avenue, Hartford, CT 6101",
                  "line": [
                     "690 Asylum Avenue"
                  ],
                  "city": "Hartford",
                  "state": "CT",
                  "postalCode": "6101",
                  "country": "USA"
               }
            ],
            "partOf": {
               "reference": "Organization/vhdir-managing-org-9990210000",
               "display": "Acme Insurance Co"
            },
            "contact": [
               {
                  "purpose": {
                     "coding": [
                        {
                           "system": "http://terminology.hl7.org/CodeSystem/contactentity-type",
                           "code": "ADMIN",
                           "display": "Administrative"
                        }
                     ]
                  },
                  "name": {
                     "use": "official",
                     "text": "Kathy Contact",
                     "family": "Contact",
                     "given": [
                        "Kathy"
                     ]
                  },
                  "telecom": [
                     {
                        "extension": [
                           {
                              "extension": [
                                 {
                                    "url": "daysOfWeek",
                                    "valueCode": "mon"
                                 },
                                 {
                                    "url": "daysOfWeek",
                                    "valueCode": "tue"
                                 },
                                 {
                                    "url": "daysOfWeek",
                                    "valueCode": "wed"
                                 },
                                 {
                                    "url": "daysOfWeek",
                                    "valueCode": "thu"
                                 },
                                 {
                                    "url": "daysOfWeek",
                                    "valueCode": "fri"
                                 },
                                 {
                                    "url": "availableStartTime",
                                    "valueTime": "07:00:00"
                                 },
                                 {
                                    "url": "availableEndTime",
                                    "valueTime": "18:00:00"
                                 }
                              ],
                              "url": "http://hl7.org/fhir/uv/vhdir/StructureDefinition/contactpoint-availabletime"
                           }
                        ],
                        "system": "phone",
                        "value": "9595555555",
                        "use": "work"
                     }
                  ]
               }
            ],
            "endpoint": [
               {
                  "reference": "Endpoint/vhdir-managing-org-9990150000-direct",
                  "display": "Acme Insurance Co of Connecticut Direct address"
               }
            ]
         },
         "request": {
            "method": "PUT",
            "url": "Organization/vhdir-managing-org-9990150000"
         }
      },
      {
         "fullUrl": "http://vhdir-demo.fhir.org/fhir/Organization/vhdir-managing-org-9990160000",
         "resource": {
            "resourceType": "Organization",
            "id": "vhdir-managing-org-9990160000",
            "meta": {
               "profile": [
                  "http://hl7.org/fhir/uv/vhdir/StructureDefinition/vhdir-organization"
               ]
            },
            "identifier": [
               {
                  "extension": [
                     {
                        "url": "http://hl7.org/fhir/uv/vhdir/StructureDefinition/identifier-status",
                        "valueCode": "active"
                     }
                  ],
                  "use": "official",
                  "type": {
                     "coding": [
                        {
                           "system": "http://terminology.hl7.org/CodeSystem/v2-0203",
                           "code": "NPI",
                           "display": "National provider identifier"
                        }
                     ],
                     "text": "NPI"
                  },
                  "system": "http://hl7.org/fhir/sid/us-npi",
                  "value": "9990160000",
                  "period": {
                     "start": "2004-04-21T11:57:00-05:00"
                  },
                  "assigner": {
                     "display": "Centers for Medicare and Medicaid Services"
                  }
               }
            ],
            "active": true,
            "type": [
               {
                  "coding": [
                     {
                        "system": "http://terminology.hl7.org/CodeSystem/organization-type",
                        "code": "ins",
                        "display": "Insurance Company"
                     }
                  ],
                  "text": "Insurance Company"
               }
            ],
            "name": "Green Circle of Connecticut",
            "telecom": [
               {
                  "system": "phone",
                  "value": "9595555555"
               }
            ],
            "address": [
               {
                  "extension": [
                     {
                        "extension": [
                           {
                              "url": "latitude",
                              "valueDecimal": 41.78007
                           },
                           {
                              "url": "longitude",
                              "valueDecimal": -72.677099
                           }
                        ],
                        "url": "http://hl7.org/fhir/StructureDefinition/geolocation"
                     }
                  ],
                  "use": "work",
                  "type": "both",
                  "text": "185 Asylum Street, Hartford, CT 6101",
                  "line": [
                     "185 Asylum Street"
                  ],
                  "city": "Hartford",
                  "state": "CT",
                  "postalCode": "6101",
                  "country": "USA"
               }
            ],
            "partOf": {
               "reference": "Organization/vhdir-managing-org-9990220000",
               "display": "Green Circle Ins"
            },
            "contact": [
               {
                  "purpose": {
                     "coding": [
                        {
                           "system": "http://terminology.hl7.org/CodeSystem/contactentity-type",
                           "code": "ADMIN",
                           "display": "Administrative"
                        }
                     ]
                  },
                  "name": {
                     "use": "official",
                     "text": "Kathy Contact",
                     "family": "Contact",
                     "given": [
                        "Kathy"
                     ]
                  },
                  "telecom": [
                     {
                        "extension": [
                           {
                              "extension": [
                                 {
                                    "url": "daysOfWeek",
                                    "valueCode": "mon"
                                 },
                                 {
                                    "url": "daysOfWeek",
                                    "valueCode": "tue"
                                 },
                                 {
                                    "url": "daysOfWeek",
                                    "valueCode": "wed"
                                 },
                                 {
                                    "url": "daysOfWeek",
                                    "valueCode": "thu"
                                 },
                                 {
                                    "url": "daysOfWeek",
                                    "valueCode": "fri"
                                 },
                                 {
                                    "url": "availableStartTime",
                                    "valueTime": "07:00:00"
                                 },
                                 {
                                    "url": "availableEndTime",
                                    "valueTime": "18:00:00"
                                 }
                              ],
                              "url": "http://hl7.org/fhir/uv/vhdir/StructureDefinition/contactpoint-availabletime"
                           }
                        ],
                        "system": "phone",
                        "value": "9595555555",
                        "use": "work"
                     }
                  ]
               }
            ],
            "endpoint": [
               {
                  "reference": "Endpoint/vhdir-managing-org-9990160000-direct",
                  "display": "Green Circle of Connecticut Direct address"
               }
            ]
         },
         "request": {
            "method": "PUT",
            "url": "Organization/vhdir-managing-org-9990160000"
         }
      },
      {
         "fullUrl": "http://vhdir-demo.fhir.org/fhir/Organization/vhdir-managing-org-9990170000",
         "resource": {
            "resourceType": "Organization",
            "id": "vhdir-managing-org-9990170000",
            "meta": {
               "profile": [
                  "http://hl7.org/fhir/uv/vhdir/StructureDefinition/vhdir-organization"
               ]
            },
            "identifier": [
               {
                  "extension": [
                     {
                        "url": "http://hl7.org/fhir/uv/vhdir/StructureDefinition/identifier-status",
                        "valueCode": "active"
                     }
                  ],
                  "use": "official",
                  "type": {
                     "coding": [
                        {
                           "system": "http://terminology.hl7.org/CodeSystem/v2-0203",
                           "code": "NPI",
                           "display": "National provider identifier"
                        }
                     ],
                     "text": "NPI"
                  },
                  "system": "http://hl7.org/fhir/sid/us-npi",
                  "value": "9990170000",
                  "period": {
                     "start": "2004-04-21T11:57:00-05:00"
                  },
                  "assigner": {
                     "display": "Centers for Medicare and Medicaid Services"
                  }
               }
            ],
            "active": true,
            "type": [
               {
                  "coding": [
                     {
                        "system": "http://terminology.hl7.org/CodeSystem/organization-type",
                        "code": "ins",
                        "display": "Insurance Company"
                     }
                  ],
                  "text": "Insurance Company"
               }
            ],
            "name": "Persona of Connecticut",
            "telecom": [
               {
                  "system": "phone",
                  "value": "9595555555"
               }
            ],
            "address": [
               {
                  "extension": [
                     {
                        "extension": [
                           {
                              "url": "latitude",
                              "valueDecimal": 41.78007
                           },
                           {
                              "url": "longitude",
                              "valueDecimal": -72.677099
                           }
                        ],
                        "url": "http://hl7.org/fhir/StructureDefinition/geolocation"
                     }
                  ],
                  "use": "work",
                  "type": "both",
                  "text": "27 Grove Street, Hartford, CT 6101",
                  "line": [
                     "27 Grove Street"
                  ],
                  "city": "Hartford",
                  "state": "CT",
                  "postalCode": "6101",
                  "country": "USA"
               }
            ],
            "partOf": {
               "reference": "Organization/vhdir-managing-org-9990230000",
               "display": "Persona"
            },
            "contact": [
               {
                  "purpose": {
                     "coding": [
                        {
                           "system": "http://terminology.hl7.org/CodeSystem/contactentity-type",
                           "code": "ADMIN",
                           "display": "Administrative"
                        }
                     ]
                  },
                  "name": {
                     "use": "official",
                     "text": "Kathy Contact",
                     "family": "Contact",
                     "given": [
                        "Kathy"
                     ]
                  },
                  "telecom": [
                     {
                        "extension": [
                           {
                              "extension": [
                                 {
                                    "url": "daysOfWeek",
                                    "valueCode": "mon"
                                 },
                                 {
                                    "url": "daysOfWeek",
                                    "valueCode": "tue"
                                 },
                                 {
                                    "url": "daysOfWeek",
                                    "valueCode": "wed"
                                 },
                                 {
                                    "url": "daysOfWeek",
                                    "valueCode": "thu"
                                 },
                                 {
                                    "url": "daysOfWeek",
                                    "valueCode": "fri"
                                 },
                                 {
                                    "url": "availableStartTime",
                                    "valueTime": "07:00:00"
                                 },
                                 {
                                    "url": "availableEndTime",
                                    "valueTime": "18:00:00"
                                 }
                              ],
                              "url": "http://hl7.org/fhir/uv/vhdir/StructureDefinition/contactpoint-availabletime"
                           }
                        ],
                        "system": "phone",
                        "value": "9595555555",
                        "use": "work"
                     }
                  ]
               }
            ],
            "endpoint": [
               {
                  "reference": "Endpoint/vhdir-managing-org-9990170000-direct",
                  "display": "Persona of Connecticut Direct address"
               }
            ]
         },
         "request": {
            "method": "PUT",
            "url": "Organization/vhdir-managing-org-9990170000"
         }
      },
      {
         "fullUrl": "http://vhdir-demo.fhir.org/fhir/Organization/vhdir-managing-org-9990180000",
         "resource": {
            "resourceType": "Organization",
            "id": "vhdir-managing-org-9990180000",
            "meta": {
               "profile": [
                  "http://hl7.org/fhir/uv/vhdir/StructureDefinition/vhdir-organization"
               ]
            },
            "identifier": [
               {
                  "extension": [
                     {
                        "url": "http://hl7.org/fhir/uv/vhdir/StructureDefinition/identifier-status",
                        "valueCode": "active"
                     }
                  ],
                  "use": "official",
                  "type": {
                     "coding": [
                        {
                           "system": "http://terminology.hl7.org/CodeSystem/v2-0203",
                           "code": "NPI",
                           "display": "National provider identifier"
                        }
                     ],
                     "text": "NPI"
                  },
                  "system": "http://hl7.org/fhir/sid/us-npi",
                  "value": "9990180000",
                  "period": {
                     "start": "2004-04-21T11:57:00-05:00"
                  },
                  "assigner": {
                     "display": "Centers for Medicare and Medicaid Services"
                  }
               }
            ],
            "active": true,
            "type": [
               {
                  "coding": [
                     {
                        "system": "http://terminology.hl7.org/CodeSystem/organization-type",
                        "code": "ins",
                        "display": "Insurance Company"
                     }
                  ],
                  "text": "Insurance Company"
               }
            ],
            "name": "Acme Insurance Co of Rhode Island",
            "telecom": [
               {
                  "system": "phone",
                  "value": "4015555555"
               }
            ],
            "address": [
               {
                  "extension": [
                     {
                        "extension": [
                           {
                              "url": "latitude",
                              "valueDecimal": 41.82275
                           },
                           {
                              "url": "longitude",
                              "valueDecimal": -71.414451
                           }
                        ],
                        "url": "http://hl7.org/fhir/StructureDefinition/geolocation"
                     }
                  ],
                  "use": "work",
                  "type": "both",
                  "text": "111 Westminster Street, Providence, RI 2901",
                  "line": [
                     "111 Westminster Street"
                  ],
                  "city": "Providence",
                  "state": "RI",
                  "postalCode": "2901",
                  "country": "USA"
               }
            ],
            "partOf": {
               "reference": "Organization/vhdir-managing-org-9990210000",
               "display": "Acme Insurance Co"
            },
            "contact": [
               {
                  "purpose": {
                     "coding": [
                        {
                           "system": "http://terminology.hl7.org/CodeSystem/contactentity-type",
                           "code": "ADMIN",
                           "display": "Administrative"
                        }
                     ]
                  },
                  "name": {
                     "use": "official",
                     "text": "Kathy Contact",
                     "family": "Contact",
                     "given": [
                        "Kathy"
                     ]
                  },
                  "telecom": [
                     {
                        "extension": [
                           {
                              "extension": [
                                 {
                                    "url": "daysOfWeek",
                                    "valueCode": "mon"
                                 },
                                 {
                                    "url": "daysOfWeek",
                                    "valueCode": "tue"
                                 },
                                 {
                                    "url": "daysOfWeek",
                                    "valueCode": "wed"
                                 },
                                 {
                                    "url": "daysOfWeek",
                                    "valueCode": "thu"
                                 },
                                 {
                                    "url": "daysOfWeek",
                                    "valueCode": "fri"
                                 },
                                 {
                                    "url": "availableStartTime",
                                    "valueTime": "07:00:00"
                                 },
                                 {
                                    "url": "availableEndTime",
                                    "valueTime": "18:00:00"
                                 }
                              ],
                              "url": "http://hl7.org/fhir/uv/vhdir/StructureDefinition/contactpoint-availabletime"
                           }
                        ],
                        "system": "phone",
                        "value": "4015555555",
                        "use": "work"
                     }
                  ]
               }
            ],
            "endpoint": [
               {
                  "reference": "Endpoint/vhdir-managing-org-9990180000-direct",
                  "display": "Acme Insurance Co of Rhode Island Direct address"
               }
            ]
         },
         "request": {
            "method": "PUT",
            "url": "Organization/vhdir-managing-org-9990180000"
         }
      },
      {
         "fullUrl": "http://vhdir-demo.fhir.org/fhir/Organization/vhdir-managing-org-9990190000",
         "resource": {
            "resourceType": "Organization",
            "id": "vhdir-managing-org-9990190000",
            "meta": {
               "profile": [
                  "http://hl7.org/fhir/uv/vhdir/StructureDefinition/vhdir-organization"
               ]
            },
            "identifier": [
               {
                  "extension": [
                     {
                        "url": "http://hl7.org/fhir/uv/vhdir/StructureDefinition/identifier-status",
                        "valueCode": "active"
                     }
                  ],
                  "use": "official",
                  "type": {
                     "coding": [
                        {
                           "system": "http://terminology.hl7.org/CodeSystem/v2-0203",
                           "code": "NPI",
                           "display": "National provider identifier"
                        }
                     ],
                     "text": "NPI"
                  },
                  "system": "http://hl7.org/fhir/sid/us-npi",
                  "value": "9990190000",
                  "period": {
                     "start": "2004-04-21T11:57:00-05:00"
                  },
                  "assigner": {
                     "display": "Centers for Medicare and Medicaid Services"
                  }
               }
            ],
            "active": true,
            "type": [
               {
                  "coding": [
                     {
                        "system": "http://terminology.hl7.org/CodeSystem/organization-type",
                        "code": "ins",
                        "display": "Insurance Company"
                     }
                  ],
                  "text": "Insurance Company"
               }
            ],
            "name": "Green Circle of Rhode Island",
            "telecom": [
               {
                  "system": "phone",
                  "value": "4015555555"
               }
            ],
            "address": [
               {
                  "extension": [
                     {
                        "extension": [
                           {
                              "url": "latitude",
                              "valueDecimal": 41.82275
                           },
                           {
                              "url": "longitude",
                              "valueDecimal": -71.414451
                           }
                        ],
                        "url": "http://hl7.org/fhir/StructureDefinition/geolocation"
                     }
                  ],
                  "use": "work",
                  "type": "both",
                  "text": "One Financial Plaza, Providence, RI 2901",
                  "line": [
                     "One Financial Plaza"
                  ],
                  "city": "Providence",
                  "state": "RI",
                  "postalCode": "2901",
                  "country": "USA"
               }
            ],
            "partOf": {
               "reference": "Organization/vhdir-managing-org-9990220000",
               "display": "Green Circle Ins"
            },
            "contact": [
               {
                  "purpose": {
                     "coding": [
                        {
                           "system": "http://terminology.hl7.org/CodeSystem/contactentity-type",
                           "code": "ADMIN",
                           "display": "Administrative"
                        }
                     ]
                  },
                  "name": {
                     "use": "official",
                     "text": "Kathy Contact",
                     "family": "Contact",
                     "given": [
                        "Kathy"
                     ]
                  },
                  "telecom": [
                     {
                        "extension": [
                           {
                              "extension": [
                                 {
                                    "url": "daysOfWeek",
                                    "valueCode": "mon"
                                 },
                                 {
                                    "url": "daysOfWeek",
                                    "valueCode": "tue"
                                 },
                                 {
                                    "url": "daysOfWeek",
                                    "valueCode": "wed"
                                 },
                                 {
                                    "url": "daysOfWeek",
                                    "valueCode": "thu"
                                 },
                                 {
                                    "url": "daysOfWeek",
                                    "valueCode": "fri"
                                 },
                                 {
                                    "url": "availableStartTime",
                                    "valueTime": "07:00:00"
                                 },
                                 {
                                    "url": "availableEndTime",
                                    "valueTime": "18:00:00"
                                 }
                              ],
                              "url": "http://hl7.org/fhir/uv/vhdir/StructureDefinition/contactpoint-availabletime"
                           }
                        ],
                        "system": "phone",
                        "value": "4015555555",
                        "use": "work"
                     }
                  ]
               }
            ],
            "endpoint": [
               {
                  "reference": "Endpoint/vhdir-managing-org-9990190000-direct",
                  "display": "Green Circle of Rhode Island Direct address"
               }
            ]
         },
         "request": {
            "method": "PUT",
            "url": "Organization/vhdir-managing-org-9990190000"
         }
      },
      {
         "fullUrl": "http://vhdir-demo.fhir.org/fhir/Organization/vhdir-managing-org-9990200000",
         "resource": {
            "resourceType": "Organization",
            "id": "vhdir-managing-org-9990200000",
            "meta": {
               "profile": [
                  "http://hl7.org/fhir/uv/vhdir/StructureDefinition/vhdir-organization"
               ]
            },
            "identifier": [
               {
                  "extension": [
                     {
                        "url": "http://hl7.org/fhir/uv/vhdir/StructureDefinition/identifier-status",
                        "valueCode": "active"
                     }
                  ],
                  "use": "official",
                  "type": {
                     "coding": [
                        {
                           "system": "http://terminology.hl7.org/CodeSystem/v2-0203",
                           "code": "NPI",
                           "display": "National provider identifier"
                        }
                     ],
                     "text": "NPI"
                  },
                  "system": "http://hl7.org/fhir/sid/us-npi",
                  "value": "9990200000",
                  "period": {
                     "start": "2004-04-21T11:57:00-05:00"
                  },
                  "assigner": {
                     "display": "Centers for Medicare and Medicaid Services"
                  }
               }
            ],
            "active": true,
            "type": [
               {
                  "coding": [
                     {
                        "system": "http://terminology.hl7.org/CodeSystem/organization-type",
                        "code": "ins",
                        "display": "Insurance Company"
                     }
                  ],
                  "text": "Insurance Company"
               }
            ],
            "name": "Persona of Rhode Island",
            "telecom": [
               {
                  "system": "phone",
                  "value": "4015555555"
               }
            ],
            "address": [
               {
                  "extension": [
                     {
                        "extension": [
                           {
                              "url": "latitude",
                              "valueDecimal": 41.82275
                           },
                           {
                              "url": "longitude",
                              "valueDecimal": -71.414451
                           }
                        ],
                        "url": "http://hl7.org/fhir/StructureDefinition/geolocation"
                     }
                  ],
                  "use": "work",
                  "type": "both",
                  "text": "500 Exchange Street, Providence, RI 2901",
                  "line": [
                     "500 Exchange Street"
                  ],
                  "city": "Providence",
                  "state": "RI",
                  "postalCode": "2901",
                  "country": "USA"
               }
            ],
            "partOf": {
               "reference": "Organization/vhdir-managing-org-9990230000",
               "display": "Persona"
            },
            "contact": [
               {
                  "purpose": {
                     "coding": [
                        {
                           "system": "http://terminology.hl7.org/CodeSystem/contactentity-type",
                           "code": "ADMIN",
                           "display": "Administrative"
                        }
                     ]
                  },
                  "name": {
                     "use": "official",
                     "text": "Kathy Contact",
                     "family": "Contact",
                     "given": [
                        "Kathy"
                     ]
                  },
                  "telecom": [
                     {
                        "extension": [
                           {
                              "extension": [
                                 {
                                    "url": "daysOfWeek",
                                    "valueCode": "mon"
                                 },
                                 {
                                    "url": "daysOfWeek",
                                    "valueCode": "tue"
                                 },
                                 {
                                    "url": "daysOfWeek",
                                    "valueCode": "wed"
                                 },
                                 {
                                    "url": "daysOfWeek",
                                    "valueCode": "thu"
                                 },
                                 {
                                    "url": "daysOfWeek",
                                    "valueCode": "fri"
                                 },
                                 {
                                    "url": "availableStartTime",
                                    "valueTime": "07:00:00"
                                 },
                                 {
                                    "url": "availableEndTime",
                                    "valueTime": "18:00:00"
                                 }
                              ],
                              "url": "http://hl7.org/fhir/uv/vhdir/StructureDefinition/contactpoint-availabletime"
                           }
                        ],
                        "system": "phone",
                        "value": "4015555555",
                        "use": "work"
                     }
                  ]
               }
            ],
            "endpoint": [
               {
                  "reference": "Endpoint/vhdir-managing-org-9990200000-direct",
                  "display": "Persona of Rhode Island Direct address"
               }
            ]
         },
         "request": {
            "method": "PUT",
            "url": "Organization/vhdir-managing-org-9990200000"
         }
      },
      {
         "fullUrl": "http://vhdir-demo.fhir.org/fhir/Organization/vhdir-managing-org-9990210000",
         "resource": {
            "resourceType": "Organization",
            "id": "vhdir-managing-org-9990210000",
            "meta": {
               "profile": [
                  "http://hl7.org/fhir/uv/vhdir/StructureDefinition/vhdir-organization"
               ]
            },
            "identifier": [
               {
                  "extension": [
                     {
                        "url": "http://hl7.org/fhir/uv/vhdir/StructureDefinition/identifier-status",
                        "valueCode": "active"
                     }
                  ],
                  "use": "official",
                  "type": {
                     "coding": [
                        {
                           "system": "http://terminology.hl7.org/CodeSystem/v2-0203",
                           "code": "NPI",
                           "display": "National provider identifier"
                        }
                     ],
                     "text": "NPI"
                  },
                  "system": "http://hl7.org/fhir/sid/us-npi",
                  "value": "9990210000",
                  "period": {
                     "start": "2004-04-21T11:57:00-05:00"
                  },
                  "assigner": {
                     "display": "Centers for Medicare and Medicaid Services"
                  }
               }
            ],
            "active": true,
            "type": [
               {
                  "coding": [
                     {
                        "system": "http://terminology.hl7.org/CodeSystem/organization-type",
                        "code": "ins",
                        "display": "Insurance Company"
                     }
                  ],
                  "text": "Insurance Company"
               }
            ],
            "name": "Acme Insurance Co",
            "telecom": [
               {
                  "system": "phone",
                  "value": "18885455205"
               }
            ],
            "address": [
               {
                  "extension": [
                     {
                        "extension": [
                           {
                              "url": "latitude",
                              "valueDecimal": 44.913969
                           },
                           {
                              "url": "longitude",
                              "valueDecimal": -93.44813
                           }
                        ],
                        "url": "http://hl7.org/fhir/StructureDefinition/geolocation"
                     }
                  ],
                  "use": "work",
                  "type": "both",
                  "text": "9900 Bren Road East, Minnetonka, MN 55343",
                  "line": [
                     "9900 Bren Road East"
                  ],
                  "city": "Minnetonka",
                  "state": "MN",
                  "postalCode": "55343",
                  "country": "USA"
               }
            ],
            "contact": [
               {
                  "purpose": {
                     "coding": [
                        {
                           "system": "http://terminology.hl7.org/CodeSystem/contactentity-type",
                           "code": "ADMIN",
                           "display": "Administrative"
                        }
                     ]
                  },
                  "name": {
                     "use": "official",
                     "text": "Kathy Contact",
                     "family": "Contact",
                     "given": [
                        "Kathy"
                     ]
                  },
                  "telecom": [
                     {
                        "extension": [
                           {
                              "extension": [
                                 {
                                    "url": "daysOfWeek",
                                    "valueCode": "mon"
                                 },
                                 {
                                    "url": "daysOfWeek",
                                    "valueCode": "tue"
                                 },
                                 {
                                    "url": "daysOfWeek",
                                    "valueCode": "wed"
                                 },
                                 {
                                    "url": "daysOfWeek",
                                    "valueCode": "thu"
                                 },
                                 {
                                    "url": "daysOfWeek",
                                    "valueCode": "fri"
                                 },
                                 {
                                    "url": "availableStartTime",
                                    "valueTime": "07:00:00"
                                 },
                                 {
                                    "url": "availableEndTime",
                                    "valueTime": "18:00:00"
                                 }
                              ],
                              "url": "http://hl7.org/fhir/uv/vhdir/StructureDefinition/contactpoint-availabletime"
                           }
                        ],
                        "system": "phone",
                        "value": "18885455205",
                        "use": "work"
                     }
                  ]
               }
            ],
            "endpoint": [
               {
                  "reference": "Endpoint/vhdir-managing-org-9990210000-direct",
                  "display": "Acme Insurance Co Direct address"
               }
            ]
         },
         "request": {
            "method": "PUT",
            "url": "Organization/vhdir-managing-org-9990210000"
         }
      },
      {
         "fullUrl": "http://vhdir-demo.fhir.org/fhir/Organization/vhdir-managing-org-9990220000",
         "resource": {
            "resourceType": "Organization",
            "id": "vhdir-managing-org-9990220000",
            "meta": {
               "profile": [
                  "http://hl7.org/fhir/uv/vhdir/StructureDefinition/vhdir-organization"
               ]
            },
            "identifier": [
               {
                  "extension": [
                     {
                        "url": "http://hl7.org/fhir/uv/vhdir/StructureDefinition/identifier-status",
                        "valueCode": "active"
                     }
                  ],
                  "use": "official",
                  "type": {
                     "coding": [
                        {
                           "system": "http://terminology.hl7.org/CodeSystem/v2-0203",
                           "code": "NPI",
                           "display": "National provider identifier"
                        }
                     ],
                     "text": "NPI"
                  },
                  "system": "http://hl7.org/fhir/sid/us-npi",
                  "value": "9990220000",
                  "period": {
                     "start": "2004-04-21T11:57:00-05:00"
                  },
                  "assigner": {
                     "display": "Centers for Medicare and Medicaid Services"
                  }
               }
            ],
            "active": true,
            "type": [
               {
                  "coding": [
                     {
                        "system": "http://terminology.hl7.org/CodeSystem/organization-type",
                        "code": "ins",
                        "display": "Insurance Company"
                     }
                  ],
                  "text": "Insurance Company"
               }
            ],
            "name": "Green Circle Ins",
            "telecom": [
               {
                  "system": "phone",
                  "value": "6179729400"
               }
            ],
            "address": [
               {
                  "extension": [
                     {
                        "extension": [
                           {
                              "url": "latitude",
                              "valueDecimal": 42.293501
                           },
                           {
                              "url": "longitude",
                              "valueDecimal": -71.925696
                           }
                        ],
                        "url": "http://hl7.org/fhir/StructureDefinition/geolocation"
                     }
                  ],
                  "use": "work",
                  "type": "both",
                  "text": "500 Exchange Street, Worcester, MA 1608",
                  "line": [
                     "500 Exchange Street"
                  ],
                  "city": "Worcester",
                  "state": "MA",
                  "postalCode": "1608",
                  "country": "USA"
               }
            ],
            "contact": [
               {
                  "purpose": {
                     "coding": [
                        {
                           "system": "http://terminology.hl7.org/CodeSystem/contactentity-type",
                           "code": "ADMIN",
                           "display": "Administrative"
                        }
                     ]
                  },
                  "name": {
                     "use": "official",
                     "text": "Kathy Contact",
                     "family": "Contact",
                     "given": [
                        "Kathy"
                     ]
                  },
                  "telecom": [
                     {
                        "extension": [
                           {
                              "extension": [
                                 {
                                    "url": "daysOfWeek",
                                    "valueCode": "mon"
                                 },
                                 {
                                    "url": "daysOfWeek",
                                    "valueCode": "tue"
                                 },
                                 {
                                    "url": "daysOfWeek",
                                    "valueCode": "wed"
                                 },
                                 {
                                    "url": "daysOfWeek",
                                    "valueCode": "thu"
                                 },
                                 {
                                    "url": "daysOfWeek",
                                    "valueCode": "fri"
                                 },
                                 {
                                    "url": "availableStartTime",
                                    "valueTime": "07:00:00"
                                 },
                                 {
                                    "url": "availableEndTime",
                                    "valueTime": "18:00:00"
                                 }
                              ],
                              "url": "http://hl7.org/fhir/uv/vhdir/StructureDefinition/contactpoint-availabletime"
                           }
                        ],
                        "system": "phone",
                        "value": "6179729400",
                        "use": "work"
                     }
                  ]
               }
            ],
            "endpoint": [
               {
                  "reference": "Endpoint/vhdir-managing-org-9990220000-direct",
                  "display": "Green Circle Ins Direct address"
               }
            ]
         },
         "request": {
            "method": "PUT",
            "url": "Organization/vhdir-managing-org-9990220000"
         }
      },
      {
         "fullUrl": "http://vhdir-demo.fhir.org/fhir/Organization/vhdir-managing-org-9990230000",
         "resource": {
            "resourceType": "Organization",
            "id": "vhdir-managing-org-9990230000",
            "meta": {
               "profile": [
                  "http://hl7.org/fhir/uv/vhdir/StructureDefinition/vhdir-organization"
               ]
            },
            "identifier": [
               {
                  "extension": [
                     {
                        "url": "http://hl7.org/fhir/uv/vhdir/StructureDefinition/identifier-status",
                        "valueCode": "active"
                     }
                  ],
                  "use": "official",
                  "type": {
                     "coding": [
                        {
                           "system": "http://terminology.hl7.org/CodeSystem/v2-0203",
                           "code": "NPI",
                           "display": "National provider identifier"
                        }
                     ],
                     "text": "NPI"
                  },
                  "system": "http://hl7.org/fhir/sid/us-npi",
                  "value": "9990230000",
                  "period": {
                     "start": "2004-04-21T11:57:00-05:00"
                  },
                  "assigner": {
                     "display": "Centers for Medicare and Medicaid Services"
                  }
               }
            ],
            "active": true,
            "type": [
               {
                  "coding": [
                     {
                        "system": "http://terminology.hl7.org/CodeSystem/organization-type",
                        "code": "ins",
                        "display": "Insurance Company"
                     }
                  ],
                  "text": "Insurance Company"
               }
            ],
            "name": "Persona",
            "telecom": [
               {
                  "system": "phone",
                  "value": "18004862620"
               }
            ],
            "address": [
               {
                  "extension": [
                     {
                        "extension": [
                           {
                              "url": "latitude",
                              "valueDecimal": 38.25247
                           },
                           {
                              "url": "longitude",
                              "valueDecimal": -85.753812
                           }
                        ],
                        "url": "http://hl7.org/fhir/StructureDefinition/geolocation"
                     }
                  ],
                  "use": "work",
                  "type": "both",
                  "text": "500 Exchange Street, Louisville, KY 40202",
                  "line": [
                     "500 Exchange Street"
                  ],
                  "city": "Louisville",
                  "state": "KY",
                  "postalCode": "40202",
                  "country": "USA"
               }
            ],
            "contact": [
               {
                  "purpose": {
                     "coding": [
                        {
                           "system": "http://terminology.hl7.org/CodeSystem/contactentity-type",
                           "code": "ADMIN",
                           "display": "Administrative"
                        }
                     ]
                  },
                  "name": {
                     "use": "official",
                     "text": "Kathy Contact",
                     "family": "Contact",
                     "given": [
                        "Kathy"
                     ]
                  },
                  "telecom": [
                     {
                        "extension": [
                           {
                              "extension": [
                                 {
                                    "url": "daysOfWeek",
                                    "valueCode": "mon"
                                 },
                                 {
                                    "url": "daysOfWeek",
                                    "valueCode": "tue"
                                 },
                                 {
                                    "url": "daysOfWeek",
                                    "valueCode": "wed"
                                 },
                                 {
                                    "url": "daysOfWeek",
                                    "valueCode": "thu"
                                 },
                                 {
                                    "url": "daysOfWeek",
                                    "valueCode": "fri"
                                 },
                                 {
                                    "url": "availableStartTime",
                                    "valueTime": "07:00:00"
                                 },
                                 {
                                    "url": "availableEndTime",
                                    "valueTime": "18:00:00"
                                 }
                              ],
                              "url": "http://hl7.org/fhir/uv/vhdir/StructureDefinition/contactpoint-availabletime"
                           }
                        ],
                        "system": "phone",
                        "value": "18004862620",
                        "use": "work"
                     }
                  ]
               }
            ],
            "endpoint": [
               {
                  "reference": "Endpoint/vhdir-managing-org-9990230000-direct",
                  "display": "Persona Direct address"
               }
            ]
         },
         "request": {
            "method": "PUT",
            "url": "Organization/vhdir-managing-org-9990230000"
         }
      },
      {
         "fullUrl": "http://vhdir-demo.fhir.org/fhir/Organization/vhdir-managing-org-9990120000",
         "resource": {
            "resourceType": "Organization",
            "id": "vhdir-managing-org-9990120000",
            "meta": {
               "profile": [
                  "http://hl7.org/fhir/uv/vhdir/StructureDefinition/vhdir-organization"
               ]
            },
            "identifier": [
               {
                  "extension": [
                     {
                        "url": "http://hl7.org/fhir/uv/vhdir/StructureDefinition/identifier-status",
                        "valueCode": "active"
                     }
                  ],
                  "use": "official",
                  "type": {
                     "coding": [
                        {
                           "system": "http://terminology.hl7.org/CodeSystem/v2-0203",
                           "code": "NPI",
                           "display": "National provider identifier"
                        }
                     ],
                     "text": "NPI"
                  },
                  "system": "http://hl7.org/fhir/sid/us-npi",
                  "value": "9990120000",
                  "period": {
                     "start": "2004-04-21T11:57:00-05:00"
                  },
                  "assigner": {
                     "display": "Centers for Medicare and Medicaid Services"
                  }
               }
            ],
            "active": true,
            "type": [
               {
                  "coding": [
                     {
                        "system": "http://terminology.hl7.org/CodeSystem/organization-type",
                        "code": "ins",
                        "display": "Insurance Company"
                     }
                  ],
                  "text": "Insurance Company"
               }
            ],
            "name": "Acme Insurance Co of Massachusetts",
            "telecom": [
               {
                  "system": "phone",
                  "value": "6075555555"
               }
            ],
            "address": [
               {
                  "extension": [
                     {
                        "extension": [
                           {
                              "url": "latitude",
                              "valueDecimal": 42.370567
                           },
                           {
                              "url": "longitude",
                              "valueDecimal": -71.026964
                           }
                        ],
                        "url": "http://hl7.org/fhir/StructureDefinition/geolocation"
                     }
                  ],
                  "use": "work",
                  "type": "both",
                  "text": "120 St James Ave, Boston, MA 2101",
                  "line": [
                     "120 St James Ave"
                  ],
                  "city": "Boston",
                  "state": "MA",
                  "postalCode": "2101",
                  "country": "USA"
               }
            ],
            "partOf": {
               "reference": "Organization/vhdir-managing-org-9990210000",
               "display": "Acme Insurance Co"
            },
            "contact": [
               {
                  "purpose": {
                     "coding": [
                        {
                           "system": "http://terminology.hl7.org/CodeSystem/contactentity-type",
                           "code": "ADMIN",
                           "display": "Administrative"
                        }
                     ]
                  },
                  "name": {
                     "use": "official",
                     "text": "Kathy Contact",
                     "family": "Contact",
                     "given": [
                        "Kathy"
                     ]
                  },
                  "telecom": [
                     {
                        "extension": [
                           {
                              "extension": [
                                 {
                                    "url": "daysOfWeek",
                                    "valueCode": "mon"
                                 },
                                 {
                                    "url": "daysOfWeek",
                                    "valueCode": "tue"
                                 },
                                 {
                                    "url": "daysOfWeek",
                                    "valueCode": "wed"
                                 },
                                 {
                                    "url": "daysOfWeek",
                                    "valueCode": "thu"
                                 },
                                 {
                                    "url": "daysOfWeek",
                                    "valueCode": "fri"
                                 },
                                 {
                                    "url": "availableStartTime",
                                    "valueTime": "07:00:00"
                                 },
                                 {
                                    "url": "availableEndTime",
                                    "valueTime": "18:00:00"
                                 }
                              ],
                              "url": "http://hl7.org/fhir/uv/vhdir/StructureDefinition/contactpoint-availabletime"
                           }
                        ],
                        "system": "phone",
                        "value": "6075555555",
                        "use": "work"
                     }
                  ]
               }
            ],
            "endpoint": [
               {
                  "reference": "Endpoint/vhdir-managing-org-9990120000-direct",
                  "display": "Acme Insurance Co of Massachusetts Direct address"
               }
            ]
         },
         "request": {
            "method": "PUT",
            "url": "Organization/vhdir-managing-org-9990120000"
         }
      },
      {
         "fullUrl": "http://vhdir-demo.fhir.org/fhir/Organization/vhdir-managing-org-9990130000",
         "resource": {
            "resourceType": "Organization",
            "id": "vhdir-managing-org-9990130000",
            "meta": {
               "profile": [
                  "http://hl7.org/fhir/uv/vhdir/StructureDefinition/vhdir-organization"
               ]
            },
            "identifier": [
               {
                  "extension": [
                     {
                        "url": "http://hl7.org/fhir/uv/vhdir/StructureDefinition/identifier-status",
                        "valueCode": "active"
                     }
                  ],
                  "use": "official",
                  "type": {
                     "coding": [
                        {
                           "system": "http://terminology.hl7.org/CodeSystem/v2-0203",
                           "code": "NPI",
                           "display": "National provider identifier"
                        }
                     ],
                     "text": "NPI"
                  },
                  "system": "http://hl7.org/fhir/sid/us-npi",
                  "value": "9990130000",
                  "period": {
                     "start": "2004-04-21T11:57:00-05:00"
                  },
                  "assigner": {
                     "display": "Centers for Medicare and Medicaid Services"
                  }
               }
            ],
            "active": true,
            "type": [
               {
                  "coding": [
                     {
                        "system": "http://terminology.hl7.org/CodeSystem/organization-type",
                        "code": "ins",
                        "display": "Insurance Company"
                     }
                  ],
                  "text": "Insurance Company"
               }
            ],
            "name": "Green Circle of Massachusetts",
            "telecom": [
               {
                  "system": "phone",
                  "value": "6075555555"
               }
            ],
            "address": [
               {
                  "extension": [
                     {
                        "extension": [
                           {
                              "url": "latitude",
                              "valueDecimal": 42.370567
                           },
                           {
                              "url": "longitude",
                              "valueDecimal": -71.026964
                           }
                        ],
                        "url": "http://hl7.org/fhir/StructureDefinition/geolocation"
                     }
                  ],
                  "use": "work",
                  "type": "both",
                  "text": "800 Washington St, Boston, MA 2101",
                  "line": [
                     "800 Washington St"
                  ],
                  "city": "Boston",
                  "state": "MA",
                  "postalCode": "2101",
                  "country": "USA"
               }
            ],
            "partOf": {
               "reference": "Organization/vhdir-managing-org-9990220000",
               "display": "Green Circle Ins"
            },
            "contact": [
               {
                  "purpose": {
                     "coding": [
                        {
                           "system": "http://terminology.hl7.org/CodeSystem/contactentity-type",
                           "code": "ADMIN",
                           "display": "Administrative"
                        }
                     ]
                  },
                  "name": {
                     "use": "official",
                     "text": "Kathy Contact",
                     "family": "Contact",
                     "given": [
                        "Kathy"
                     ]
                  },
                  "telecom": [
                     {
                        "extension": [
                           {
                              "extension": [
                                 {
                                    "url": "daysOfWeek",
                                    "valueCode": "mon"
                                 },
                                 {
                                    "url": "daysOfWeek",
                                    "valueCode": "tue"
                                 },
                                 {
                                    "url": "daysOfWeek",
                                    "valueCode": "wed"
                                 },
                                 {
                                    "url": "daysOfWeek",
                                    "valueCode": "thu"
                                 },
                                 {
                                    "url": "daysOfWeek",
                                    "valueCode": "fri"
                                 },
                                 {
                                    "url": "availableStartTime",
                                    "valueTime": "07:00:00"
                                 },
                                 {
                                    "url": "availableEndTime",
                                    "valueTime": "18:00:00"
                                 }
                              ],
                              "url": "http://hl7.org/fhir/uv/vhdir/StructureDefinition/contactpoint-availabletime"
                           }
                        ],
                        "system": "phone",
                        "value": "6075555555",
                        "use": "work"
                     }
                  ]
               }
            ],
            "endpoint": [
               {
                  "reference": "Endpoint/vhdir-managing-org-9990130000-direct",
                  "display": "Green Circle of Massachusetts Direct address"
               }
            ]
         },
         "request": {
            "method": "PUT",
            "url": "Organization/vhdir-managing-org-9990130000"
         }
      },
      {
         "fullUrl": "http://vhdir-demo.fhir.org/fhir/Organization/vhdir-managing-org-9990140000",
         "resource": {
            "resourceType": "Organization",
            "id": "vhdir-managing-org-9990140000",
            "meta": {
               "profile": [
                  "http://hl7.org/fhir/uv/vhdir/StructureDefinition/vhdir-organization"
               ]
            },
            "identifier": [
               {
                  "extension": [
                     {
                        "url": "http://hl7.org/fhir/uv/vhdir/StructureDefinition/identifier-status",
                        "valueCode": "active"
                     }
                  ],
                  "use": "official",
                  "type": {
                     "coding": [
                        {
                           "system": "http://terminology.hl7.org/CodeSystem/v2-0203",
                           "code": "NPI",
                           "display": "National provider identifier"
                        }
                     ],
                     "text": "NPI"
                  },
                  "system": "http://hl7.org/fhir/sid/us-npi",
                  "value": "9990140000",
                  "period": {
                     "start": "2004-04-21T11:57:00-05:00"
                  },
                  "assigner": {
                     "display": "Centers for Medicare and Medicaid Services"
                  }
               }
            ],
            "active": true,
            "type": [
               {
                  "coding": [
                     {
                        "system": "http://terminology.hl7.org/CodeSystem/organization-type",
                        "code": "ins",
                        "display": "Insurance Company"
                     }
                  ],
                  "text": "Insurance Company"
               }
            ],
            "name": "Persona of Massachusetts",
            "telecom": [
               {
                  "system": "phone",
                  "value": "6075555555"
               }
            ],
            "address": [
               {
                  "extension": [
                     {
                        "extension": [
                           {
                              "url": "latitude",
                              "valueDecimal": 42.370567
                           },
                           {
                              "url": "longitude",
                              "valueDecimal": -71.026964
                           }
                        ],
                        "url": "http://hl7.org/fhir/StructureDefinition/geolocation"
                     }
                  ],
                  "use": "work",
                  "type": "both",
                  "text": "120 Royall St, Boston, MA 2101",
                  "line": [
                     "120 Royall St"
                  ],
                  "city": "Boston",
                  "state": "MA",
                  "postalCode": "2101",
                  "country": "USA"
               }
            ],
            "partOf": {
               "reference": "Organization/vhdir-managing-org-9990230000",
               "display": "Persona"
            },
            "contact": [
               {
                  "purpose": {
                     "coding": [
                        {
                           "system": "http://terminology.hl7.org/CodeSystem/contactentity-type",
                           "code": "ADMIN",
                           "display": "Administrative"
                        }
                     ]
                  },
                  "name": {
                     "use": "official",
                     "text": "Kathy Contact",
                     "family": "Contact",
                     "given": [
                        "Kathy"
                     ]
                  },
                  "telecom": [
                     {
                        "extension": [
                           {
                              "extension": [
                                 {
                                    "url": "daysOfWeek",
                                    "valueCode": "mon"
                                 },
                                 {
                                    "url": "daysOfWeek",
                                    "valueCode": "tue"
                                 },
                                 {
                                    "url": "daysOfWeek",
                                    "valueCode": "wed"
                                 },
                                 {
                                    "url": "daysOfWeek",
                                    "valueCode": "thu"
                                 },
                                 {
                                    "url": "daysOfWeek",
                                    "valueCode": "fri"
                                 },
                                 {
                                    "url": "availableStartTime",
                                    "valueTime": "07:00:00"
                                 },
                                 {
                                    "url": "availableEndTime",
                                    "valueTime": "18:00:00"
                                 }
                              ],
                              "url": "http://hl7.org/fhir/uv/vhdir/StructureDefinition/contactpoint-availabletime"
                           }
                        ],
                        "system": "phone",
                        "value": "6075555555",
                        "use": "work"
                     }
                  ]
               }
            ],
            "endpoint": [
               {
                  "reference": "Endpoint/vhdir-managing-org-9990140000-direct",
                  "display": "Persona of Massachusetts Direct address"
               }
            ]
         },
         "request": {
            "method": "PUT",
            "url": "Organization/vhdir-managing-org-9990140000"
         }
      },
      {
         "fullUrl": "http://vhdir-demo.fhir.org/fhir/Organization/vhdir-managing-org-9990150000",
         "resource": {
            "resourceType": "Organization",
            "id": "vhdir-managing-org-9990150000",
            "meta": {
               "profile": [
                  "http://hl7.org/fhir/uv/vhdir/StructureDefinition/vhdir-organization"
               ]
            },
            "identifier": [
               {
                  "extension": [
                     {
                        "url": "http://hl7.org/fhir/uv/vhdir/StructureDefinition/identifier-status",
                        "valueCode": "active"
                     }
                  ],
                  "use": "official",
                  "type": {
                     "coding": [
                        {
                           "system": "http://terminology.hl7.org/CodeSystem/v2-0203",
                           "code": "NPI",
                           "display": "National provider identifier"
                        }
                     ],
                     "text": "NPI"
                  },
                  "system": "http://hl7.org/fhir/sid/us-npi",
                  "value": "9990150000",
                  "period": {
                     "start": "2004-04-21T11:57:00-05:00"
                  },
                  "assigner": {
                     "display": "Centers for Medicare and Medicaid Services"
                  }
               }
            ],
            "active": true,
            "type": [
               {
                  "coding": [
                     {
                        "system": "http://terminology.hl7.org/CodeSystem/organization-type",
                        "code": "ins",
                        "display": "Insurance Company"
                     }
                  ],
                  "text": "Insurance Company"
               }
            ],
            "name": "Acme Insurance Co of Connecticut",
            "telecom": [
               {
                  "system": "phone",
                  "value": "9595555555"
               }
            ],
            "address": [
               {
                  "extension": [
                     {
                        "extension": [
                           {
                              "url": "latitude",
                              "valueDecimal": 41.78007
                           },
                           {
                              "url": "longitude",
                              "valueDecimal": -72.677099
                           }
                        ],
                        "url": "http://hl7.org/fhir/StructureDefinition/geolocation"
                     }
                  ],
                  "use": "work",
                  "type": "both",
                  "text": "690 Asylum Avenue, Hartford, CT 6101",
                  "line": [
                     "690 Asylum Avenue"
                  ],
                  "city": "Hartford",
                  "state": "CT",
                  "postalCode": "6101",
                  "country": "USA"
               }
            ],
            "partOf": {
               "reference": "Organization/vhdir-managing-org-9990210000",
               "display": "Acme Insurance Co"
            },
            "contact": [
               {
                  "purpose": {
                     "coding": [
                        {
                           "system": "http://terminology.hl7.org/CodeSystem/contactentity-type",
                           "code": "ADMIN",
                           "display": "Administrative"
                        }
                     ]
                  },
                  "name": {
                     "use": "official",
                     "text": "Kathy Contact",
                     "family": "Contact",
                     "given": [
                        "Kathy"
                     ]
                  },
                  "telecom": [
                     {
                        "extension": [
                           {
                              "extension": [
                                 {
                                    "url": "daysOfWeek",
                                    "valueCode": "mon"
                                 },
                                 {
                                    "url": "daysOfWeek",
                                    "valueCode": "tue"
                                 },
                                 {
                                    "url": "daysOfWeek",
                                    "valueCode": "wed"
                                 },
                                 {
                                    "url": "daysOfWeek",
                                    "valueCode": "thu"
                                 },
                                 {
                                    "url": "daysOfWeek",
                                    "valueCode": "fri"
                                 },
                                 {
                                    "url": "availableStartTime",
                                    "valueTime": "07:00:00"
                                 },
                                 {
                                    "url": "availableEndTime",
                                    "valueTime": "18:00:00"
                                 }
                              ],
                              "url": "http://hl7.org/fhir/uv/vhdir/StructureDefinition/contactpoint-availabletime"
                           }
                        ],
                        "system": "phone",
                        "value": "9595555555",
                        "use": "work"
                     }
                  ]
               }
            ],
            "endpoint": [
               {
                  "reference": "Endpoint/vhdir-managing-org-9990150000-direct",
                  "display": "Acme Insurance Co of Connecticut Direct address"
               }
            ]
         },
         "request": {
            "method": "PUT",
            "url": "Organization/vhdir-managing-org-9990150000"
         }
      },
      {
         "fullUrl": "http://vhdir-demo.fhir.org/fhir/Organization/vhdir-managing-org-9990160000",
         "resource": {
            "resourceType": "Organization",
            "id": "vhdir-managing-org-9990160000",
            "meta": {
               "profile": [
                  "http://hl7.org/fhir/uv/vhdir/StructureDefinition/vhdir-organization"
               ]
            },
            "identifier": [
               {
                  "extension": [
                     {
                        "url": "http://hl7.org/fhir/uv/vhdir/StructureDefinition/identifier-status",
                        "valueCode": "active"
                     }
                  ],
                  "use": "official",
                  "type": {
                     "coding": [
                        {
                           "system": "http://terminology.hl7.org/CodeSystem/v2-0203",
                           "code": "NPI",
                           "display": "National provider identifier"
                        }
                     ],
                     "text": "NPI"
                  },
                  "system": "http://hl7.org/fhir/sid/us-npi",
                  "value": "9990160000",
                  "period": {
                     "start": "2004-04-21T11:57:00-05:00"
                  },
                  "assigner": {
                     "display": "Centers for Medicare and Medicaid Services"
                  }
               }
            ],
            "active": true,
            "type": [
               {
                  "coding": [
                     {
                        "system": "http://terminology.hl7.org/CodeSystem/organization-type",
                        "code": "ins",
                        "display": "Insurance Company"
                     }
                  ],
                  "text": "Insurance Company"
               }
            ],
            "name": "Green Circle of Connecticut",
            "telecom": [
               {
                  "system": "phone",
                  "value": "9595555555"
               }
            ],
            "address": [
               {
                  "extension": [
                     {
                        "extension": [
                           {
                              "url": "latitude",
                              "valueDecimal": 41.78007
                           },
                           {
                              "url": "longitude",
                              "valueDecimal": -72.677099
                           }
                        ],
                        "url": "http://hl7.org/fhir/StructureDefinition/geolocation"
                     }
                  ],
                  "use": "work",
                  "type": "both",
                  "text": "185 Asylum Street, Hartford, CT 6101",
                  "line": [
                     "185 Asylum Street"
                  ],
                  "city": "Hartford",
                  "state": "CT",
                  "postalCode": "6101",
                  "country": "USA"
               }
            ],
            "partOf": {
               "reference": "Organization/vhdir-managing-org-9990220000",
               "display": "Green Circle Ins"
            },
            "contact": [
               {
                  "purpose": {
                     "coding": [
                        {
                           "system": "http://terminology.hl7.org/CodeSystem/contactentity-type",
                           "code": "ADMIN",
                           "display": "Administrative"
                        }
                     ]
                  },
                  "name": {
                     "use": "official",
                     "text": "Kathy Contact",
                     "family": "Contact",
                     "given": [
                        "Kathy"
                     ]
                  },
                  "telecom": [
                     {
                        "extension": [
                           {
                              "extension": [
                                 {
                                    "url": "daysOfWeek",
                                    "valueCode": "mon"
                                 },
                                 {
                                    "url": "daysOfWeek",
                                    "valueCode": "tue"
                                 },
                                 {
                                    "url": "daysOfWeek",
                                    "valueCode": "wed"
                                 },
                                 {
                                    "url": "daysOfWeek",
                                    "valueCode": "thu"
                                 },
                                 {
                                    "url": "daysOfWeek",
                                    "valueCode": "fri"
                                 },
                                 {
                                    "url": "availableStartTime",
                                    "valueTime": "07:00:00"
                                 },
                                 {
                                    "url": "availableEndTime",
                                    "valueTime": "18:00:00"
                                 }
                              ],
                              "url": "http://hl7.org/fhir/uv/vhdir/StructureDefinition/contactpoint-availabletime"
                           }
                        ],
                        "system": "phone",
                        "value": "9595555555",
                        "use": "work"
                     }
                  ]
               }
            ],
            "endpoint": [
               {
                  "reference": "Endpoint/vhdir-managing-org-9990160000-direct",
                  "display": "Green Circle of Connecticut Direct address"
               }
            ]
         },
         "request": {
            "method": "PUT",
            "url": "Organization/vhdir-managing-org-9990160000"
         }
      },
      {
         "fullUrl": "http://vhdir-demo.fhir.org/fhir/Organization/vhdir-managing-org-9990170000",
         "resource": {
            "resourceType": "Organization",
            "id": "vhdir-managing-org-9990170000",
            "meta": {
               "profile": [
                  "http://hl7.org/fhir/uv/vhdir/StructureDefinition/vhdir-organization"
               ]
            },
            "identifier": [
               {
                  "extension": [
                     {
                        "url": "http://hl7.org/fhir/uv/vhdir/StructureDefinition/identifier-status",
                        "valueCode": "active"
                     }
                  ],
                  "use": "official",
                  "type": {
                     "coding": [
                        {
                           "system": "http://terminology.hl7.org/CodeSystem/v2-0203",
                           "code": "NPI",
                           "display": "National provider identifier"
                        }
                     ],
                     "text": "NPI"
                  },
                  "system": "http://hl7.org/fhir/sid/us-npi",
                  "value": "9990170000",
                  "period": {
                     "start": "2004-04-21T11:57:00-05:00"
                  },
                  "assigner": {
                     "display": "Centers for Medicare and Medicaid Services"
                  }
               }
            ],
            "active": true,
            "type": [
               {
                  "coding": [
                     {
                        "system": "http://terminology.hl7.org/CodeSystem/organization-type",
                        "code": "ins",
                        "display": "Insurance Company"
                     }
                  ],
                  "text": "Insurance Company"
               }
            ],
            "name": "Persona of Connecticut",
            "telecom": [
               {
                  "system": "phone",
                  "value": "9595555555"
               }
            ],
            "address": [
               {
                  "extension": [
                     {
                        "extension": [
                           {
                              "url": "latitude",
                              "valueDecimal": 41.78007
                           },
                           {
                              "url": "longitude",
                              "valueDecimal": -72.677099
                           }
                        ],
                        "url": "http://hl7.org/fhir/StructureDefinition/geolocation"
                     }
                  ],
                  "use": "work",
                  "type": "both",
                  "text": "27 Grove Street, Hartford, CT 6101",
                  "line": [
                     "27 Grove Street"
                  ],
                  "city": "Hartford",
                  "state": "CT",
                  "postalCode": "6101",
                  "country": "USA"
               }
            ],
            "partOf": {
               "reference": "Organization/vhdir-managing-org-9990230000",
               "display": "Persona"
            },
            "contact": [
               {
                  "purpose": {
                     "coding": [
                        {
                           "system": "http://terminology.hl7.org/CodeSystem/contactentity-type",
                           "code": "ADMIN",
                           "display": "Administrative"
                        }
                     ]
                  },
                  "name": {
                     "use": "official",
                     "text": "Kathy Contact",
                     "family": "Contact",
                     "given": [
                        "Kathy"
                     ]
                  },
                  "telecom": [
                     {
                        "extension": [
                           {
                              "extension": [
                                 {
                                    "url": "daysOfWeek",
                                    "valueCode": "mon"
                                 },
                                 {
                                    "url": "daysOfWeek",
                                    "valueCode": "tue"
                                 },
                                 {
                                    "url": "daysOfWeek",
                                    "valueCode": "wed"
                                 },
                                 {
                                    "url": "daysOfWeek",
                                    "valueCode": "thu"
                                 },
                                 {
                                    "url": "daysOfWeek",
                                    "valueCode": "fri"
                                 },
                                 {
                                    "url": "availableStartTime",
                                    "valueTime": "07:00:00"
                                 },
                                 {
                                    "url": "availableEndTime",
                                    "valueTime": "18:00:00"
                                 }
                              ],
                              "url": "http://hl7.org/fhir/uv/vhdir/StructureDefinition/contactpoint-availabletime"
                           }
                        ],
                        "system": "phone",
                        "value": "9595555555",
                        "use": "work"
                     }
                  ]
               }
            ],
            "endpoint": [
               {
                  "reference": "Endpoint/vhdir-managing-org-9990170000-direct",
                  "display": "Persona of Connecticut Direct address"
               }
            ]
         },
         "request": {
            "method": "PUT",
            "url": "Organization/vhdir-managing-org-9990170000"
         }
      },
      {
         "fullUrl": "http://vhdir-demo.fhir.org/fhir/Organization/vhdir-managing-org-9990180000",
         "resource": {
            "resourceType": "Organization",
            "id": "vhdir-managing-org-9990180000",
            "meta": {
               "profile": [
                  "http://hl7.org/fhir/uv/vhdir/StructureDefinition/vhdir-organization"
               ]
            },
            "identifier": [
               {
                  "extension": [
                     {
                        "url": "http://hl7.org/fhir/uv/vhdir/StructureDefinition/identifier-status",
                        "valueCode": "active"
                     }
                  ],
                  "use": "official",
                  "type": {
                     "coding": [
                        {
                           "system": "http://terminology.hl7.org/CodeSystem/v2-0203",
                           "code": "NPI",
                           "display": "National provider identifier"
                        }
                     ],
                     "text": "NPI"
                  },
                  "system": "http://hl7.org/fhir/sid/us-npi",
                  "value": "9990180000",
                  "period": {
                     "start": "2004-04-21T11:57:00-05:00"
                  },
                  "assigner": {
                     "display": "Centers for Medicare and Medicaid Services"
                  }
               }
            ],
            "active": true,
            "type": [
               {
                  "coding": [
                     {
                        "system": "http://terminology.hl7.org/CodeSystem/organization-type",
                        "code": "ins",
                        "display": "Insurance Company"
                     }
                  ],
                  "text": "Insurance Company"
               }
            ],
            "name": "Acme Insurance Co of Rhode Island",
            "telecom": [
               {
                  "system": "phone",
                  "value": "4015555555"
               }
            ],
            "address": [
               {
                  "extension": [
                     {
                        "extension": [
                           {
                              "url": "latitude",
                              "valueDecimal": 41.82275
                           },
                           {
                              "url": "longitude",
                              "valueDecimal": -71.414451
                           }
                        ],
                        "url": "http://hl7.org/fhir/StructureDefinition/geolocation"
                     }
                  ],
                  "use": "work",
                  "type": "both",
                  "text": "111 Westminster Street, Providence, RI 2901",
                  "line": [
                     "111 Westminster Street"
                  ],
                  "city": "Providence",
                  "state": "RI",
                  "postalCode": "2901",
                  "country": "USA"
               }
            ],
            "partOf": {
               "reference": "Organization/vhdir-managing-org-9990210000",
               "display": "Acme Insurance Co"
            },
            "contact": [
               {
                  "purpose": {
                     "coding": [
                        {
                           "system": "http://terminology.hl7.org/CodeSystem/contactentity-type",
                           "code": "ADMIN",
                           "display": "Administrative"
                        }
                     ]
                  },
                  "name": {
                     "use": "official",
                     "text": "Kathy Contact",
                     "family": "Contact",
                     "given": [
                        "Kathy"
                     ]
                  },
                  "telecom": [
                     {
                        "extension": [
                           {
                              "extension": [
                                 {
                                    "url": "daysOfWeek",
                                    "valueCode": "mon"
                                 },
                                 {
                                    "url": "daysOfWeek",
                                    "valueCode": "tue"
                                 },
                                 {
                                    "url": "daysOfWeek",
                                    "valueCode": "wed"
                                 },
                                 {
                                    "url": "daysOfWeek",
                                    "valueCode": "thu"
                                 },
                                 {
                                    "url": "daysOfWeek",
                                    "valueCode": "fri"
                                 },
                                 {
                                    "url": "availableStartTime",
                                    "valueTime": "07:00:00"
                                 },
                                 {
                                    "url": "availableEndTime",
                                    "valueTime": "18:00:00"
                                 }
                              ],
                              "url": "http://hl7.org/fhir/uv/vhdir/StructureDefinition/contactpoint-availabletime"
                           }
                        ],
                        "system": "phone",
                        "value": "4015555555",
                        "use": "work"
                     }
                  ]
               }
            ],
            "endpoint": [
               {
                  "reference": "Endpoint/vhdir-managing-org-9990180000-direct",
                  "display": "Acme Insurance Co of Rhode Island Direct address"
               }
            ]
         },
         "request": {
            "method": "PUT",
            "url": "Organization/vhdir-managing-org-9990180000"
         }
      },
      {
         "fullUrl": "http://vhdir-demo.fhir.org/fhir/Organization/vhdir-managing-org-9990190000",
         "resource": {
            "resourceType": "Organization",
            "id": "vhdir-managing-org-9990190000",
            "meta": {
               "profile": [
                  "http://hl7.org/fhir/uv/vhdir/StructureDefinition/vhdir-organization"
               ]
            },
            "identifier": [
               {
                  "extension": [
                     {
                        "url": "http://hl7.org/fhir/uv/vhdir/StructureDefinition/identifier-status",
                        "valueCode": "active"
                     }
                  ],
                  "use": "official",
                  "type": {
                     "coding": [
                        {
                           "system": "http://terminology.hl7.org/CodeSystem/v2-0203",
                           "code": "NPI",
                           "display": "National provider identifier"
                        }
                     ],
                     "text": "NPI"
                  },
                  "system": "http://hl7.org/fhir/sid/us-npi",
                  "value": "9990190000",
                  "period": {
                     "start": "2004-04-21T11:57:00-05:00"
                  },
                  "assigner": {
                     "display": "Centers for Medicare and Medicaid Services"
                  }
               }
            ],
            "active": true,
            "type": [
               {
                  "coding": [
                     {
                        "system": "http://terminology.hl7.org/CodeSystem/organization-type",
                        "code": "ins",
                        "display": "Insurance Company"
                     }
                  ],
                  "text": "Insurance Company"
               }
            ],
            "name": "Green Circle of Rhode Island",
            "telecom": [
               {
                  "system": "phone",
                  "value": "4015555555"
               }
            ],
            "address": [
               {
                  "extension": [
                     {
                        "extension": [
                           {
                              "url": "latitude",
                              "valueDecimal": 41.82275
                           },
                           {
                              "url": "longitude",
                              "valueDecimal": -71.414451
                           }
                        ],
                        "url": "http://hl7.org/fhir/StructureDefinition/geolocation"
                     }
                  ],
                  "use": "work",
                  "type": "both",
                  "text": "One Financial Plaza, Providence, RI 2901",
                  "line": [
                     "One Financial Plaza"
                  ],
                  "city": "Providence",
                  "state": "RI",
                  "postalCode": "2901",
                  "country": "USA"
               }
            ],
            "partOf": {
               "reference": "Organization/vhdir-managing-org-9990220000",
               "display": "Green Circle Ins"
            },
            "contact": [
               {
                  "purpose": {
                     "coding": [
                        {
                           "system": "http://terminology.hl7.org/CodeSystem/contactentity-type",
                           "code": "ADMIN",
                           "display": "Administrative"
                        }
                     ]
                  },
                  "name": {
                     "use": "official",
                     "text": "Kathy Contact",
                     "family": "Contact",
                     "given": [
                        "Kathy"
                     ]
                  },
                  "telecom": [
                     {
                        "extension": [
                           {
                              "extension": [
                                 {
                                    "url": "daysOfWeek",
                                    "valueCode": "mon"
                                 },
                                 {
                                    "url": "daysOfWeek",
                                    "valueCode": "tue"
                                 },
                                 {
                                    "url": "daysOfWeek",
                                    "valueCode": "wed"
                                 },
                                 {
                                    "url": "daysOfWeek",
                                    "valueCode": "thu"
                                 },
                                 {
                                    "url": "daysOfWeek",
                                    "valueCode": "fri"
                                 },
                                 {
                                    "url": "availableStartTime",
                                    "valueTime": "07:00:00"
                                 },
                                 {
                                    "url": "availableEndTime",
                                    "valueTime": "18:00:00"
                                 }
                              ],
                              "url": "http://hl7.org/fhir/uv/vhdir/StructureDefinition/contactpoint-availabletime"
                           }
                        ],
                        "system": "phone",
                        "value": "4015555555",
                        "use": "work"
                     }
                  ]
               }
            ],
            "endpoint": [
               {
                  "reference": "Endpoint/vhdir-managing-org-9990190000-direct",
                  "display": "Green Circle of Rhode Island Direct address"
               }
            ]
         },
         "request": {
            "method": "PUT",
            "url": "Organization/vhdir-managing-org-9990190000"
         }
      },
      {
         "fullUrl": "http://vhdir-demo.fhir.org/fhir/Organization/vhdir-managing-org-9990200000",
         "resource": {
            "resourceType": "Organization",
            "id": "vhdir-managing-org-9990200000",
            "meta": {
               "profile": [
                  "http://hl7.org/fhir/uv/vhdir/StructureDefinition/vhdir-organization"
               ]
            },
            "identifier": [
               {
                  "extension": [
                     {
                        "url": "http://hl7.org/fhir/uv/vhdir/StructureDefinition/identifier-status",
                        "valueCode": "active"
                     }
                  ],
                  "use": "official",
                  "type": {
                     "coding": [
                        {
                           "system": "http://terminology.hl7.org/CodeSystem/v2-0203",
                           "code": "NPI",
                           "display": "National provider identifier"
                        }
                     ],
                     "text": "NPI"
                  },
                  "system": "http://hl7.org/fhir/sid/us-npi",
                  "value": "9990200000",
                  "period": {
                     "start": "2004-04-21T11:57:00-05:00"
                  },
                  "assigner": {
                     "display": "Centers for Medicare and Medicaid Services"
                  }
               }
            ],
            "active": true,
            "type": [
               {
                  "coding": [
                     {
                        "system": "http://terminology.hl7.org/CodeSystem/organization-type",
                        "code": "ins",
                        "display": "Insurance Company"
                     }
                  ],
                  "text": "Insurance Company"
               }
            ],
            "name": "Persona of Rhode Island",
            "telecom": [
               {
                  "system": "phone",
                  "value": "4015555555"
               }
            ],
            "address": [
               {
                  "extension": [
                     {
                        "extension": [
                           {
                              "url": "latitude",
                              "valueDecimal": 41.82275
                           },
                           {
                              "url": "longitude",
                              "valueDecimal": -71.414451
                           }
                        ],
                        "url": "http://hl7.org/fhir/StructureDefinition/geolocation"
                     }
                  ],
                  "use": "work",
                  "type": "both",
                  "text": "500 Exchange Street, Providence, RI 2901",
                  "line": [
                     "500 Exchange Street"
                  ],
                  "city": "Providence",
                  "state": "RI",
                  "postalCode": "2901",
                  "country": "USA"
               }
            ],
            "partOf": {
               "reference": "Organization/vhdir-managing-org-9990230000",
               "display": "Persona"
            },
            "contact": [
               {
                  "purpose": {
                     "coding": [
                        {
                           "system": "http://terminology.hl7.org/CodeSystem/contactentity-type",
                           "code": "ADMIN",
                           "display": "Administrative"
                        }
                     ]
                  },
                  "name": {
                     "use": "official",
                     "text": "Kathy Contact",
                     "family": "Contact",
                     "given": [
                        "Kathy"
                     ]
                  },
                  "telecom": [
                     {
                        "extension": [
                           {
                              "extension": [
                                 {
                                    "url": "daysOfWeek",
                                    "valueCode": "mon"
                                 },
                                 {
                                    "url": "daysOfWeek",
                                    "valueCode": "tue"
                                 },
                                 {
                                    "url": "daysOfWeek",
                                    "valueCode": "wed"
                                 },
                                 {
                                    "url": "daysOfWeek",
                                    "valueCode": "thu"
                                 },
                                 {
                                    "url": "daysOfWeek",
                                    "valueCode": "fri"
                                 },
                                 {
                                    "url": "availableStartTime",
                                    "valueTime": "07:00:00"
                                 },
                                 {
                                    "url": "availableEndTime",
                                    "valueTime": "18:00:00"
                                 }
                              ],
                              "url": "http://hl7.org/fhir/uv/vhdir/StructureDefinition/contactpoint-availabletime"
                           }
                        ],
                        "system": "phone",
                        "value": "4015555555",
                        "use": "work"
                     }
                  ]
               }
            ],
            "endpoint": [
               {
                  "reference": "Endpoint/vhdir-managing-org-9990200000-direct",
                  "display": "Persona of Rhode Island Direct address"
               }
            ]
         },
         "request": {
            "method": "PUT",
            "url": "Organization/vhdir-managing-org-9990200000"
         }
      },
      {
         "fullUrl": "http://vhdir-demo.fhir.org/fhir/Organization/vhdir-managing-org-9990120000",
         "resource": {
            "resourceType": "Organization",
            "id": "vhdir-managing-org-9990120000",
            "meta": {
               "profile": [
                  "http://hl7.org/fhir/uv/vhdir/StructureDefinition/vhdir-organization"
               ]
            },
            "identifier": [
               {
                  "extension": [
                     {
                        "url": "http://hl7.org/fhir/uv/vhdir/StructureDefinition/identifier-status",
                        "valueCode": "active"
                     }
                  ],
                  "use": "official",
                  "type": {
                     "coding": [
                        {
                           "system": "http://terminology.hl7.org/CodeSystem/v2-0203",
                           "code": "NPI",
                           "display": "National provider identifier"
                        }
                     ],
                     "text": "NPI"
                  },
                  "system": "http://hl7.org/fhir/sid/us-npi",
                  "value": "9990120000",
                  "period": {
                     "start": "2004-04-21T11:57:00-05:00"
                  },
                  "assigner": {
                     "display": "Centers for Medicare and Medicaid Services"
                  }
               }
            ],
            "active": true,
            "type": [
               {
                  "coding": [
                     {
                        "system": "http://terminology.hl7.org/CodeSystem/organization-type",
                        "code": "ins",
                        "display": "Insurance Company"
                     }
                  ],
                  "text": "Insurance Company"
               }
            ],
            "name": "Acme Insurance Co of Massachusetts",
            "telecom": [
               {
                  "system": "phone",
                  "value": "6075555555"
               }
            ],
            "address": [
               {
                  "extension": [
                     {
                        "extension": [
                           {
                              "url": "latitude",
                              "valueDecimal": 42.370567
                           },
                           {
                              "url": "longitude",
                              "valueDecimal": -71.026964
                           }
                        ],
                        "url": "http://hl7.org/fhir/StructureDefinition/geolocation"
                     }
                  ],
                  "use": "work",
                  "type": "both",
                  "text": "120 St James Ave, Boston, MA 2101",
                  "line": [
                     "120 St James Ave"
                  ],
                  "city": "Boston",
                  "state": "MA",
                  "postalCode": "2101",
                  "country": "USA"
               }
            ],
            "partOf": {
               "reference": "Organization/vhdir-managing-org-9990210000",
               "display": "Acme Insurance Co"
            },
            "contact": [
               {
                  "purpose": {
                     "coding": [
                        {
                           "system": "http://terminology.hl7.org/CodeSystem/contactentity-type",
                           "code": "ADMIN",
                           "display": "Administrative"
                        }
                     ]
                  },
                  "name": {
                     "use": "official",
                     "text": "Kathy Contact",
                     "family": "Contact",
                     "given": [
                        "Kathy"
                     ]
                  },
                  "telecom": [
                     {
                        "extension": [
                           {
                              "extension": [
                                 {
                                    "url": "daysOfWeek",
                                    "valueCode": "mon"
                                 },
                                 {
                                    "url": "daysOfWeek",
                                    "valueCode": "tue"
                                 },
                                 {
                                    "url": "daysOfWeek",
                                    "valueCode": "wed"
                                 },
                                 {
                                    "url": "daysOfWeek",
                                    "valueCode": "thu"
                                 },
                                 {
                                    "url": "daysOfWeek",
                                    "valueCode": "fri"
                                 },
                                 {
                                    "url": "availableStartTime",
                                    "valueTime": "07:00:00"
                                 },
                                 {
                                    "url": "availableEndTime",
                                    "valueTime": "18:00:00"
                                 }
                              ],
                              "url": "http://hl7.org/fhir/uv/vhdir/StructureDefinition/contactpoint-availabletime"
                           }
                        ],
                        "system": "phone",
                        "value": "6075555555",
                        "use": "work"
                     }
                  ]
               }
            ],
            "endpoint": [
               {
                  "reference": "Endpoint/vhdir-managing-org-9990120000-direct",
                  "display": "Acme Insurance Co of Massachusetts Direct address"
               }
            ]
         },
         "request": {
            "method": "PUT",
            "url": "Organization/vhdir-managing-org-9990120000"
         }
      },
      {
         "fullUrl": "http://vhdir-demo.fhir.org/fhir/Organization/vhdir-managing-org-9990130000",
         "resource": {
            "resourceType": "Organization",
            "id": "vhdir-managing-org-9990130000",
            "meta": {
               "profile": [
                  "http://hl7.org/fhir/uv/vhdir/StructureDefinition/vhdir-organization"
               ]
            },
            "identifier": [
               {
                  "extension": [
                     {
                        "url": "http://hl7.org/fhir/uv/vhdir/StructureDefinition/identifier-status",
                        "valueCode": "active"
                     }
                  ],
                  "use": "official",
                  "type": {
                     "coding": [
                        {
                           "system": "http://terminology.hl7.org/CodeSystem/v2-0203",
                           "code": "NPI",
                           "display": "National provider identifier"
                        }
                     ],
                     "text": "NPI"
                  },
                  "system": "http://hl7.org/fhir/sid/us-npi",
                  "value": "9990130000",
                  "period": {
                     "start": "2004-04-21T11:57:00-05:00"
                  },
                  "assigner": {
                     "display": "Centers for Medicare and Medicaid Services"
                  }
               }
            ],
            "active": true,
            "type": [
               {
                  "coding": [
                     {
                        "system": "http://terminology.hl7.org/CodeSystem/organization-type",
                        "code": "ins",
                        "display": "Insurance Company"
                     }
                  ],
                  "text": "Insurance Company"
               }
            ],
            "name": "Green Circle of Massachusetts",
            "telecom": [
               {
                  "system": "phone",
                  "value": "6075555555"
               }
            ],
            "address": [
               {
                  "extension": [
                     {
                        "extension": [
                           {
                              "url": "latitude",
                              "valueDecimal": 42.370567
                           },
                           {
                              "url": "longitude",
                              "valueDecimal": -71.026964
                           }
                        ],
                        "url": "http://hl7.org/fhir/StructureDefinition/geolocation"
                     }
                  ],
                  "use": "work",
                  "type": "both",
                  "text": "800 Washington St, Boston, MA 2101",
                  "line": [
                     "800 Washington St"
                  ],
                  "city": "Boston",
                  "state": "MA",
                  "postalCode": "2101",
                  "country": "USA"
               }
            ],
            "partOf": {
               "reference": "Organization/vhdir-managing-org-9990220000",
               "display": "Green Circle Ins"
            },
            "contact": [
               {
                  "purpose": {
                     "coding": [
                        {
                           "system": "http://terminology.hl7.org/CodeSystem/contactentity-type",
                           "code": "ADMIN",
                           "display": "Administrative"
                        }
                     ]
                  },
                  "name": {
                     "use": "official",
                     "text": "Kathy Contact",
                     "family": "Contact",
                     "given": [
                        "Kathy"
                     ]
                  },
                  "telecom": [
                     {
                        "extension": [
                           {
                              "extension": [
                                 {
                                    "url": "daysOfWeek",
                                    "valueCode": "mon"
                                 },
                                 {
                                    "url": "daysOfWeek",
                                    "valueCode": "tue"
                                 },
                                 {
                                    "url": "daysOfWeek",
                                    "valueCode": "wed"
                                 },
                                 {
                                    "url": "daysOfWeek",
                                    "valueCode": "thu"
                                 },
                                 {
                                    "url": "daysOfWeek",
                                    "valueCode": "fri"
                                 },
                                 {
                                    "url": "availableStartTime",
                                    "valueTime": "07:00:00"
                                 },
                                 {
                                    "url": "availableEndTime",
                                    "valueTime": "18:00:00"
                                 }
                              ],
                              "url": "http://hl7.org/fhir/uv/vhdir/StructureDefinition/contactpoint-availabletime"
                           }
                        ],
                        "system": "phone",
                        "value": "6075555555",
                        "use": "work"
                     }
                  ]
               }
            ],
            "endpoint": [
               {
                  "reference": "Endpoint/vhdir-managing-org-9990130000-direct",
                  "display": "Green Circle of Massachusetts Direct address"
               }
            ]
         },
         "request": {
            "method": "PUT",
            "url": "Organization/vhdir-managing-org-9990130000"
         }
      },
      {
         "fullUrl": "http://vhdir-demo.fhir.org/fhir/Organization/vhdir-managing-org-9990140000",
         "resource": {
            "resourceType": "Organization",
            "id": "vhdir-managing-org-9990140000",
            "meta": {
               "profile": [
                  "http://hl7.org/fhir/uv/vhdir/StructureDefinition/vhdir-organization"
               ]
            },
            "identifier": [
               {
                  "extension": [
                     {
                        "url": "http://hl7.org/fhir/uv/vhdir/StructureDefinition/identifier-status",
                        "valueCode": "active"
                     }
                  ],
                  "use": "official",
                  "type": {
                     "coding": [
                        {
                           "system": "http://terminology.hl7.org/CodeSystem/v2-0203",
                           "code": "NPI",
                           "display": "National provider identifier"
                        }
                     ],
                     "text": "NPI"
                  },
                  "system": "http://hl7.org/fhir/sid/us-npi",
                  "value": "9990140000",
                  "period": {
                     "start": "2004-04-21T11:57:00-05:00"
                  },
                  "assigner": {
                     "display": "Centers for Medicare and Medicaid Services"
                  }
               }
            ],
            "active": true,
            "type": [
               {
                  "coding": [
                     {
                        "system": "http://terminology.hl7.org/CodeSystem/organization-type",
                        "code": "ins",
                        "display": "Insurance Company"
                     }
                  ],
                  "text": "Insurance Company"
               }
            ],
            "name": "Persona of Massachusetts",
            "telecom": [
               {
                  "system": "phone",
                  "value": "6075555555"
               }
            ],
            "address": [
               {
                  "extension": [
                     {
                        "extension": [
                           {
                              "url": "latitude",
                              "valueDecimal": 42.370567
                           },
                           {
                              "url": "longitude",
                              "valueDecimal": -71.026964
                           }
                        ],
                        "url": "http://hl7.org/fhir/StructureDefinition/geolocation"
                     }
                  ],
                  "use": "work",
                  "type": "both",
                  "text": "120 Royall St, Boston, MA 2101",
                  "line": [
                     "120 Royall St"
                  ],
                  "city": "Boston",
                  "state": "MA",
                  "postalCode": "2101",
                  "country": "USA"
               }
            ],
            "partOf": {
               "reference": "Organization/vhdir-managing-org-9990230000",
               "display": "Persona"
            },
            "contact": [
               {
                  "purpose": {
                     "coding": [
                        {
                           "system": "http://terminology.hl7.org/CodeSystem/contactentity-type",
                           "code": "ADMIN",
                           "display": "Administrative"
                        }
                     ]
                  },
                  "name": {
                     "use": "official",
                     "text": "Kathy Contact",
                     "family": "Contact",
                     "given": [
                        "Kathy"
                     ]
                  },
                  "telecom": [
                     {
                        "extension": [
                           {
                              "extension": [
                                 {
                                    "url": "daysOfWeek",
                                    "valueCode": "mon"
                                 },
                                 {
                                    "url": "daysOfWeek",
                                    "valueCode": "tue"
                                 },
                                 {
                                    "url": "daysOfWeek",
                                    "valueCode": "wed"
                                 },
                                 {
                                    "url": "daysOfWeek",
                                    "valueCode": "thu"
                                 },
                                 {
                                    "url": "daysOfWeek",
                                    "valueCode": "fri"
                                 },
                                 {
                                    "url": "availableStartTime",
                                    "valueTime": "07:00:00"
                                 },
                                 {
                                    "url": "availableEndTime",
                                    "valueTime": "18:00:00"
                                 }
                              ],
                              "url": "http://hl7.org/fhir/uv/vhdir/StructureDefinition/contactpoint-availabletime"
                           }
                        ],
                        "system": "phone",
                        "value": "6075555555",
                        "use": "work"
                     }
                  ]
               }
            ],
            "endpoint": [
               {
                  "reference": "Endpoint/vhdir-managing-org-9990140000-direct",
                  "display": "Persona of Massachusetts Direct address"
               }
            ]
         },
         "request": {
            "method": "PUT",
            "url": "Organization/vhdir-managing-org-9990140000"
         }
      },
      {
         "fullUrl": "http://vhdir-demo.fhir.org/fhir/Organization/vhdir-managing-org-9990150000",
         "resource": {
            "resourceType": "Organization",
            "id": "vhdir-managing-org-9990150000",
            "meta": {
               "profile": [
                  "http://hl7.org/fhir/uv/vhdir/StructureDefinition/vhdir-organization"
               ]
            },
            "identifier": [
               {
                  "extension": [
                     {
                        "url": "http://hl7.org/fhir/uv/vhdir/StructureDefinition/identifier-status",
                        "valueCode": "active"
                     }
                  ],
                  "use": "official",
                  "type": {
                     "coding": [
                        {
                           "system": "http://terminology.hl7.org/CodeSystem/v2-0203",
                           "code": "NPI",
                           "display": "National provider identifier"
                        }
                     ],
                     "text": "NPI"
                  },
                  "system": "http://hl7.org/fhir/sid/us-npi",
                  "value": "9990150000",
                  "period": {
                     "start": "2004-04-21T11:57:00-05:00"
                  },
                  "assigner": {
                     "display": "Centers for Medicare and Medicaid Services"
                  }
               }
            ],
            "active": true,
            "type": [
               {
                  "coding": [
                     {
                        "system": "http://terminology.hl7.org/CodeSystem/organization-type",
                        "code": "ins",
                        "display": "Insurance Company"
                     }
                  ],
                  "text": "Insurance Company"
               }
            ],
            "name": "Acme Insurance Co of Connecticut",
            "telecom": [
               {
                  "system": "phone",
                  "value": "9595555555"
               }
            ],
            "address": [
               {
                  "extension": [
                     {
                        "extension": [
                           {
                              "url": "latitude",
                              "valueDecimal": 41.78007
                           },
                           {
                              "url": "longitude",
                              "valueDecimal": -72.677099
                           }
                        ],
                        "url": "http://hl7.org/fhir/StructureDefinition/geolocation"
                     }
                  ],
                  "use": "work",
                  "type": "both",
                  "text": "690 Asylum Avenue, Hartford, CT 6101",
                  "line": [
                     "690 Asylum Avenue"
                  ],
                  "city": "Hartford",
                  "state": "CT",
                  "postalCode": "6101",
                  "country": "USA"
               }
            ],
            "partOf": {
               "reference": "Organization/vhdir-managing-org-9990210000",
               "display": "Acme Insurance Co"
            },
            "contact": [
               {
                  "purpose": {
                     "coding": [
                        {
                           "system": "http://terminology.hl7.org/CodeSystem/contactentity-type",
                           "code": "ADMIN",
                           "display": "Administrative"
                        }
                     ]
                  },
                  "name": {
                     "use": "official",
                     "text": "Kathy Contact",
                     "family": "Contact",
                     "given": [
                        "Kathy"
                     ]
                  },
                  "telecom": [
                     {
                        "extension": [
                           {
                              "extension": [
                                 {
                                    "url": "daysOfWeek",
                                    "valueCode": "mon"
                                 },
                                 {
                                    "url": "daysOfWeek",
                                    "valueCode": "tue"
                                 },
                                 {
                                    "url": "daysOfWeek",
                                    "valueCode": "wed"
                                 },
                                 {
                                    "url": "daysOfWeek",
                                    "valueCode": "thu"
                                 },
                                 {
                                    "url": "daysOfWeek",
                                    "valueCode": "fri"
                                 },
                                 {
                                    "url": "availableStartTime",
                                    "valueTime": "07:00:00"
                                 },
                                 {
                                    "url": "availableEndTime",
                                    "valueTime": "18:00:00"
                                 }
                              ],
                              "url": "http://hl7.org/fhir/uv/vhdir/StructureDefinition/contactpoint-availabletime"
                           }
                        ],
                        "system": "phone",
                        "value": "9595555555",
                        "use": "work"
                     }
                  ]
               }
            ],
            "endpoint": [
               {
                  "reference": "Endpoint/vhdir-managing-org-9990150000-direct",
                  "display": "Acme Insurance Co of Connecticut Direct address"
               }
            ]
         },
         "request": {
            "method": "PUT",
            "url": "Organization/vhdir-managing-org-9990150000"
         }
      },
      {
         "fullUrl": "http://vhdir-demo.fhir.org/fhir/Organization/vhdir-managing-org-9990160000",
         "resource": {
            "resourceType": "Organization",
            "id": "vhdir-managing-org-9990160000",
            "meta": {
               "profile": [
                  "http://hl7.org/fhir/uv/vhdir/StructureDefinition/vhdir-organization"
               ]
            },
            "identifier": [
               {
                  "extension": [
                     {
                        "url": "http://hl7.org/fhir/uv/vhdir/StructureDefinition/identifier-status",
                        "valueCode": "active"
                     }
                  ],
                  "use": "official",
                  "type": {
                     "coding": [
                        {
                           "system": "http://terminology.hl7.org/CodeSystem/v2-0203",
                           "code": "NPI",
                           "display": "National provider identifier"
                        }
                     ],
                     "text": "NPI"
                  },
                  "system": "http://hl7.org/fhir/sid/us-npi",
                  "value": "9990160000",
                  "period": {
                     "start": "2004-04-21T11:57:00-05:00"
                  },
                  "assigner": {
                     "display": "Centers for Medicare and Medicaid Services"
                  }
               }
            ],
            "active": true,
            "type": [
               {
                  "coding": [
                     {
                        "system": "http://terminology.hl7.org/CodeSystem/organization-type",
                        "code": "ins",
                        "display": "Insurance Company"
                     }
                  ],
                  "text": "Insurance Company"
               }
            ],
            "name": "Green Circle of Connecticut",
            "telecom": [
               {
                  "system": "phone",
                  "value": "9595555555"
               }
            ],
            "address": [
               {
                  "extension": [
                     {
                        "extension": [
                           {
                              "url": "latitude",
                              "valueDecimal": 41.78007
                           },
                           {
                              "url": "longitude",
                              "valueDecimal": -72.677099
                           }
                        ],
                        "url": "http://hl7.org/fhir/StructureDefinition/geolocation"
                     }
                  ],
                  "use": "work",
                  "type": "both",
                  "text": "185 Asylum Street, Hartford, CT 6101",
                  "line": [
                     "185 Asylum Street"
                  ],
                  "city": "Hartford",
                  "state": "CT",
                  "postalCode": "6101",
                  "country": "USA"
               }
            ],
            "partOf": {
               "reference": "Organization/vhdir-managing-org-9990220000",
               "display": "Green Circle Ins"
            },
            "contact": [
               {
                  "purpose": {
                     "coding": [
                        {
                           "system": "http://terminology.hl7.org/CodeSystem/contactentity-type",
                           "code": "ADMIN",
                           "display": "Administrative"
                        }
                     ]
                  },
                  "name": {
                     "use": "official",
                     "text": "Kathy Contact",
                     "family": "Contact",
                     "given": [
                        "Kathy"
                     ]
                  },
                  "telecom": [
                     {
                        "extension": [
                           {
                              "extension": [
                                 {
                                    "url": "daysOfWeek",
                                    "valueCode": "mon"
                                 },
                                 {
                                    "url": "daysOfWeek",
                                    "valueCode": "tue"
                                 },
                                 {
                                    "url": "daysOfWeek",
                                    "valueCode": "wed"
                                 },
                                 {
                                    "url": "daysOfWeek",
                                    "valueCode": "thu"
                                 },
                                 {
                                    "url": "daysOfWeek",
                                    "valueCode": "fri"
                                 },
                                 {
                                    "url": "availableStartTime",
                                    "valueTime": "07:00:00"
                                 },
                                 {
                                    "url": "availableEndTime",
                                    "valueTime": "18:00:00"
                                 }
                              ],
                              "url": "http://hl7.org/fhir/uv/vhdir/StructureDefinition/contactpoint-availabletime"
                           }
                        ],
                        "system": "phone",
                        "value": "9595555555",
                        "use": "work"
                     }
                  ]
               }
            ],
            "endpoint": [
               {
                  "reference": "Endpoint/vhdir-managing-org-9990160000-direct",
                  "display": "Green Circle of Connecticut Direct address"
               }
            ]
         },
         "request": {
            "method": "PUT",
            "url": "Organization/vhdir-managing-org-9990160000"
         }
      },
      {
         "fullUrl": "http://vhdir-demo.fhir.org/fhir/Organization/vhdir-managing-org-9990170000",
         "resource": {
            "resourceType": "Organization",
            "id": "vhdir-managing-org-9990170000",
            "meta": {
               "profile": [
                  "http://hl7.org/fhir/uv/vhdir/StructureDefinition/vhdir-organization"
               ]
            },
            "identifier": [
               {
                  "extension": [
                     {
                        "url": "http://hl7.org/fhir/uv/vhdir/StructureDefinition/identifier-status",
                        "valueCode": "active"
                     }
                  ],
                  "use": "official",
                  "type": {
                     "coding": [
                        {
                           "system": "http://terminology.hl7.org/CodeSystem/v2-0203",
                           "code": "NPI",
                           "display": "National provider identifier"
                        }
                     ],
                     "text": "NPI"
                  },
                  "system": "http://hl7.org/fhir/sid/us-npi",
                  "value": "9990170000",
                  "period": {
                     "start": "2004-04-21T11:57:00-05:00"
                  },
                  "assigner": {
                     "display": "Centers for Medicare and Medicaid Services"
                  }
               }
            ],
            "active": true,
            "type": [
               {
                  "coding": [
                     {
                        "system": "http://terminology.hl7.org/CodeSystem/organization-type",
                        "code": "ins",
                        "display": "Insurance Company"
                     }
                  ],
                  "text": "Insurance Company"
               }
            ],
            "name": "Persona of Connecticut",
            "telecom": [
               {
                  "system": "phone",
                  "value": "9595555555"
               }
            ],
            "address": [
               {
                  "extension": [
                     {
                        "extension": [
                           {
                              "url": "latitude",
                              "valueDecimal": 41.78007
                           },
                           {
                              "url": "longitude",
                              "valueDecimal": -72.677099
                           }
                        ],
                        "url": "http://hl7.org/fhir/StructureDefinition/geolocation"
                     }
                  ],
                  "use": "work",
                  "type": "both",
                  "text": "27 Grove Street, Hartford, CT 6101",
                  "line": [
                     "27 Grove Street"
                  ],
                  "city": "Hartford",
                  "state": "CT",
                  "postalCode": "6101",
                  "country": "USA"
               }
            ],
            "partOf": {
               "reference": "Organization/vhdir-managing-org-9990230000",
               "display": "Persona"
            },
            "contact": [
               {
                  "purpose": {
                     "coding": [
                        {
                           "system": "http://terminology.hl7.org/CodeSystem/contactentity-type",
                           "code": "ADMIN",
                           "display": "Administrative"
                        }
                     ]
                  },
                  "name": {
                     "use": "official",
                     "text": "Kathy Contact",
                     "family": "Contact",
                     "given": [
                        "Kathy"
                     ]
                  },
                  "telecom": [
                     {
                        "extension": [
                           {
                              "extension": [
                                 {
                                    "url": "daysOfWeek",
                                    "valueCode": "mon"
                                 },
                                 {
                                    "url": "daysOfWeek",
                                    "valueCode": "tue"
                                 },
                                 {
                                    "url": "daysOfWeek",
                                    "valueCode": "wed"
                                 },
                                 {
                                    "url": "daysOfWeek",
                                    "valueCode": "thu"
                                 },
                                 {
                                    "url": "daysOfWeek",
                                    "valueCode": "fri"
                                 },
                                 {
                                    "url": "availableStartTime",
                                    "valueTime": "07:00:00"
                                 },
                                 {
                                    "url": "availableEndTime",
                                    "valueTime": "18:00:00"
                                 }
                              ],
                              "url": "http://hl7.org/fhir/uv/vhdir/StructureDefinition/contactpoint-availabletime"
                           }
                        ],
                        "system": "phone",
                        "value": "9595555555",
                        "use": "work"
                     }
                  ]
               }
            ],
            "endpoint": [
               {
                  "reference": "Endpoint/vhdir-managing-org-9990170000-direct",
                  "display": "Persona of Connecticut Direct address"
               }
            ]
         },
         "request": {
            "method": "PUT",
            "url": "Organization/vhdir-managing-org-9990170000"
         }
      },
      {
         "fullUrl": "http://vhdir-demo.fhir.org/fhir/Organization/vhdir-managing-org-9990180000",
         "resource": {
            "resourceType": "Organization",
            "id": "vhdir-managing-org-9990180000",
            "meta": {
               "profile": [
                  "http://hl7.org/fhir/uv/vhdir/StructureDefinition/vhdir-organization"
               ]
            },
            "identifier": [
               {
                  "extension": [
                     {
                        "url": "http://hl7.org/fhir/uv/vhdir/StructureDefinition/identifier-status",
                        "valueCode": "active"
                     }
                  ],
                  "use": "official",
                  "type": {
                     "coding": [
                        {
                           "system": "http://terminology.hl7.org/CodeSystem/v2-0203",
                           "code": "NPI",
                           "display": "National provider identifier"
                        }
                     ],
                     "text": "NPI"
                  },
                  "system": "http://hl7.org/fhir/sid/us-npi",
                  "value": "9990180000",
                  "period": {
                     "start": "2004-04-21T11:57:00-05:00"
                  },
                  "assigner": {
                     "display": "Centers for Medicare and Medicaid Services"
                  }
               }
            ],
            "active": true,
            "type": [
               {
                  "coding": [
                     {
                        "system": "http://terminology.hl7.org/CodeSystem/organization-type",
                        "code": "ins",
                        "display": "Insurance Company"
                     }
                  ],
                  "text": "Insurance Company"
               }
            ],
            "name": "Acme Insurance Co of Rhode Island",
            "telecom": [
               {
                  "system": "phone",
                  "value": "4015555555"
               }
            ],
            "address": [
               {
                  "extension": [
                     {
                        "extension": [
                           {
                              "url": "latitude",
                              "valueDecimal": 41.82275
                           },
                           {
                              "url": "longitude",
                              "valueDecimal": -71.414451
                           }
                        ],
                        "url": "http://hl7.org/fhir/StructureDefinition/geolocation"
                     }
                  ],
                  "use": "work",
                  "type": "both",
                  "text": "111 Westminster Street, Providence, RI 2901",
                  "line": [
                     "111 Westminster Street"
                  ],
                  "city": "Providence",
                  "state": "RI",
                  "postalCode": "2901",
                  "country": "USA"
               }
            ],
            "partOf": {
               "reference": "Organization/vhdir-managing-org-9990210000",
               "display": "Acme Insurance Co"
            },
            "contact": [
               {
                  "purpose": {
                     "coding": [
                        {
                           "system": "http://terminology.hl7.org/CodeSystem/contactentity-type",
                           "code": "ADMIN",
                           "display": "Administrative"
                        }
                     ]
                  },
                  "name": {
                     "use": "official",
                     "text": "Kathy Contact",
                     "family": "Contact",
                     "given": [
                        "Kathy"
                     ]
                  },
                  "telecom": [
                     {
                        "extension": [
                           {
                              "extension": [
                                 {
                                    "url": "daysOfWeek",
                                    "valueCode": "mon"
                                 },
                                 {
                                    "url": "daysOfWeek",
                                    "valueCode": "tue"
                                 },
                                 {
                                    "url": "daysOfWeek",
                                    "valueCode": "wed"
                                 },
                                 {
                                    "url": "daysOfWeek",
                                    "valueCode": "thu"
                                 },
                                 {
                                    "url": "daysOfWeek",
                                    "valueCode": "fri"
                                 },
                                 {
                                    "url": "availableStartTime",
                                    "valueTime": "07:00:00"
                                 },
                                 {
                                    "url": "availableEndTime",
                                    "valueTime": "18:00:00"
                                 }
                              ],
                              "url": "http://hl7.org/fhir/uv/vhdir/StructureDefinition/contactpoint-availabletime"
                           }
                        ],
                        "system": "phone",
                        "value": "4015555555",
                        "use": "work"
                     }
                  ]
               }
            ],
            "endpoint": [
               {
                  "reference": "Endpoint/vhdir-managing-org-9990180000-direct",
                  "display": "Acme Insurance Co of Rhode Island Direct address"
               }
            ]
         },
         "request": {
            "method": "PUT",
            "url": "Organization/vhdir-managing-org-9990180000"
         }
      },
      {
         "fullUrl": "http://vhdir-demo.fhir.org/fhir/Organization/vhdir-managing-org-9990190000",
         "resource": {
            "resourceType": "Organization",
            "id": "vhdir-managing-org-9990190000",
            "meta": {
               "profile": [
                  "http://hl7.org/fhir/uv/vhdir/StructureDefinition/vhdir-organization"
               ]
            },
            "identifier": [
               {
                  "extension": [
                     {
                        "url": "http://hl7.org/fhir/uv/vhdir/StructureDefinition/identifier-status",
                        "valueCode": "active"
                     }
                  ],
                  "use": "official",
                  "type": {
                     "coding": [
                        {
                           "system": "http://terminology.hl7.org/CodeSystem/v2-0203",
                           "code": "NPI",
                           "display": "National provider identifier"
                        }
                     ],
                     "text": "NPI"
                  },
                  "system": "http://hl7.org/fhir/sid/us-npi",
                  "value": "9990190000",
                  "period": {
                     "start": "2004-04-21T11:57:00-05:00"
                  },
                  "assigner": {
                     "display": "Centers for Medicare and Medicaid Services"
                  }
               }
            ],
            "active": true,
            "type": [
               {
                  "coding": [
                     {
                        "system": "http://terminology.hl7.org/CodeSystem/organization-type",
                        "code": "ins",
                        "display": "Insurance Company"
                     }
                  ],
                  "text": "Insurance Company"
               }
            ],
            "name": "Green Circle of Rhode Island",
            "telecom": [
               {
                  "system": "phone",
                  "value": "4015555555"
               }
            ],
            "address": [
               {
                  "extension": [
                     {
                        "extension": [
                           {
                              "url": "latitude",
                              "valueDecimal": 41.82275
                           },
                           {
                              "url": "longitude",
                              "valueDecimal": -71.414451
                           }
                        ],
                        "url": "http://hl7.org/fhir/StructureDefinition/geolocation"
                     }
                  ],
                  "use": "work",
                  "type": "both",
                  "text": "One Financial Plaza, Providence, RI 2901",
                  "line": [
                     "One Financial Plaza"
                  ],
                  "city": "Providence",
                  "state": "RI",
                  "postalCode": "2901",
                  "country": "USA"
               }
            ],
            "partOf": {
               "reference": "Organization/vhdir-managing-org-9990220000",
               "display": "Green Circle Ins"
            },
            "contact": [
               {
                  "purpose": {
                     "coding": [
                        {
                           "system": "http://terminology.hl7.org/CodeSystem/contactentity-type",
                           "code": "ADMIN",
                           "display": "Administrative"
                        }
                     ]
                  },
                  "name": {
                     "use": "official",
                     "text": "Kathy Contact",
                     "family": "Contact",
                     "given": [
                        "Kathy"
                     ]
                  },
                  "telecom": [
                     {
                        "extension": [
                           {
                              "extension": [
                                 {
                                    "url": "daysOfWeek",
                                    "valueCode": "mon"
                                 },
                                 {
                                    "url": "daysOfWeek",
                                    "valueCode": "tue"
                                 },
                                 {
                                    "url": "daysOfWeek",
                                    "valueCode": "wed"
                                 },
                                 {
                                    "url": "daysOfWeek",
                                    "valueCode": "thu"
                                 },
                                 {
                                    "url": "daysOfWeek",
                                    "valueCode": "fri"
                                 },
                                 {
                                    "url": "availableStartTime",
                                    "valueTime": "07:00:00"
                                 },
                                 {
                                    "url": "availableEndTime",
                                    "valueTime": "18:00:00"
                                 }
                              ],
                              "url": "http://hl7.org/fhir/uv/vhdir/StructureDefinition/contactpoint-availabletime"
                           }
                        ],
                        "system": "phone",
                        "value": "4015555555",
                        "use": "work"
                     }
                  ]
               }
            ],
            "endpoint": [
               {
                  "reference": "Endpoint/vhdir-managing-org-9990190000-direct",
                  "display": "Green Circle of Rhode Island Direct address"
               }
            ]
         },
         "request": {
            "method": "PUT",
            "url": "Organization/vhdir-managing-org-9990190000"
         }
      },
      {
         "fullUrl": "http://vhdir-demo.fhir.org/fhir/Organization/vhdir-managing-org-9990200000",
         "resource": {
            "resourceType": "Organization",
            "id": "vhdir-managing-org-9990200000",
            "meta": {
               "profile": [
                  "http://hl7.org/fhir/uv/vhdir/StructureDefinition/vhdir-organization"
               ]
            },
            "identifier": [
               {
                  "extension": [
                     {
                        "url": "http://hl7.org/fhir/uv/vhdir/StructureDefinition/identifier-status",
                        "valueCode": "active"
                     }
                  ],
                  "use": "official",
                  "type": {
                     "coding": [
                        {
                           "system": "http://terminology.hl7.org/CodeSystem/v2-0203",
                           "code": "NPI",
                           "display": "National provider identifier"
                        }
                     ],
                     "text": "NPI"
                  },
                  "system": "http://hl7.org/fhir/sid/us-npi",
                  "value": "9990200000",
                  "period": {
                     "start": "2004-04-21T11:57:00-05:00"
                  },
                  "assigner": {
                     "display": "Centers for Medicare and Medicaid Services"
                  }
               }
            ],
            "active": true,
            "type": [
               {
                  "coding": [
                     {
                        "system": "http://terminology.hl7.org/CodeSystem/organization-type",
                        "code": "ins",
                        "display": "Insurance Company"
                     }
                  ],
                  "text": "Insurance Company"
               }
            ],
            "name": "Persona of Rhode Island",
            "telecom": [
               {
                  "system": "phone",
                  "value": "4015555555"
               }
            ],
            "address": [
               {
                  "extension": [
                     {
                        "extension": [
                           {
                              "url": "latitude",
                              "valueDecimal": 41.82275
                           },
                           {
                              "url": "longitude",
                              "valueDecimal": -71.414451
                           }
                        ],
                        "url": "http://hl7.org/fhir/StructureDefinition/geolocation"
                     }
                  ],
                  "use": "work",
                  "type": "both",
                  "text": "500 Exchange Street, Providence, RI 2901",
                  "line": [
                     "500 Exchange Street"
                  ],
                  "city": "Providence",
                  "state": "RI",
                  "postalCode": "2901",
                  "country": "USA"
               }
            ],
            "partOf": {
               "reference": "Organization/vhdir-managing-org-9990230000",
               "display": "Persona"
            },
            "contact": [
               {
                  "purpose": {
                     "coding": [
                        {
                           "system": "http://terminology.hl7.org/CodeSystem/contactentity-type",
                           "code": "ADMIN",
                           "display": "Administrative"
                        }
                     ]
                  },
                  "name": {
                     "use": "official",
                     "text": "Kathy Contact",
                     "family": "Contact",
                     "given": [
                        "Kathy"
                     ]
                  },
                  "telecom": [
                     {
                        "extension": [
                           {
                              "extension": [
                                 {
                                    "url": "daysOfWeek",
                                    "valueCode": "mon"
                                 },
                                 {
                                    "url": "daysOfWeek",
                                    "valueCode": "tue"
                                 },
                                 {
                                    "url": "daysOfWeek",
                                    "valueCode": "wed"
                                 },
                                 {
                                    "url": "daysOfWeek",
                                    "valueCode": "thu"
                                 },
                                 {
                                    "url": "daysOfWeek",
                                    "valueCode": "fri"
                                 },
                                 {
                                    "url": "availableStartTime",
                                    "valueTime": "07:00:00"
                                 },
                                 {
                                    "url": "availableEndTime",
                                    "valueTime": "18:00:00"
                                 }
                              ],
                              "url": "http://hl7.org/fhir/uv/vhdir/StructureDefinition/contactpoint-availabletime"
                           }
                        ],
                        "system": "phone",
                        "value": "4015555555",
                        "use": "work"
                     }
                  ]
               }
            ],
            "endpoint": [
               {
                  "reference": "Endpoint/vhdir-managing-org-9990200000-direct",
                  "display": "Persona of Rhode Island Direct address"
               }
            ]
         },
         "request": {
            "method": "PUT",
            "url": "Organization/vhdir-managing-org-9990200000"
         }
      }
   ]
}