<Bundle xmlns="http://hl7.org/fhir">
<id value="vhdir-practitioner-examples-bundle"/>
 <type value="batch"/>
 <timestamp value="2018-11-29T07:16:27.710554Z"/>
 
<entry>
 <fullUrl value="http://test.fhir.org/r4/vhdir-practitioner-9995334207"/><!-- 0..1 URI for resource (Absolute URL server address or URI for UUID/OID) -->
 <resource><Practitioner xmlns="http://hl7.org/fhir">
	<!-- synthetic practitioner -->
	
	<id value="vhdir-practitioner-9995334207"/>
	<meta>
		<versionId value="1"/>
		<profile value="http://hl7.org/fhir/uv/vhdir/StructureDefinition/vhdir-practitioner"/>
	</meta>
	
<!--*******************************

 A reference to the practitioner's personal electronic endpoint (independent of their role with an organization)

url = 'type' Describes the practitioner's digital certificate. In this case, an identity certificate used for digitally signing, associated with the DirectTrust framework

************************************

	<extension url="http://hl7.org/fhir/uv/vhdir/StructureDefinition/endpoint-reference">	
		<valueReference>
			<reference value="Endpoint/vhdir-practitioner-9995334207"/>
			<display value="Practitioner 9995334207 Direct address"/>
		</valueReference>
	</extension>
	<extension url="http://hl7.org/fhir/uv/vhdir/StructureDefinition/digitalcertificate">
		<extension url="type">
			<valueCoding>
				<system value="http://hl7.org/fhir/uv/vhdir/CodeSystem/codesystem-digitalcertificate"/>
				<code value="ind"/>
				<display value="Individual"/>
			</valueCoding>
		</extension>
		<extension url="use">
			<valueCoding>
				<system value="http://hl7.org/fhir/uv/vhdir/CodeSystem/codesystem-digitalcertificate"/>
				<code value="signing"/>
				<display value="Signing"/>
			</valueCoding>
		</extension>
		<extension url="certificateStandard">
			<valueCoding>
				<system value="http://hl7.org/fhir/uv/vhdir/CodeSystem/codesystem-digitalcertificate"/>
				<code value="x.509v3"/>
				<display value="x.509v3"/>
			</valueCoding>
		</extension>
		<extension url="certificate">
			<valueString value=""/>
		</extension>
		<extension url="expirationDate">
			<valueDate value="1970-09-03"/>
		</extension>
		<extension url="trustFramework">
			<valueCodeableConcept>
				<coding>
					<system value="http://hl7.org/fhir/uv/vhdir/CodeSystem/codesystem-digitalcertificate"/>
					<code value="direct"/>
					<display value="DirectTrust"/>
					<userSelected value="true"/>
				</coding>
			</valueCodeableConcept>
		</extension>
	</extension>
-->

<!--********************	e.g. The practitioner provides culturally competent care for a local Native American tribe, the Piscataway People *********


	<extension url="http://hl7.org/fhir/uv/vhdir/StructureDefinition/accessibility">
		<valueCodeableConcept>
			<coding>
				<system value="http://hl7.org/fhir/uv/vhdir/CodeSystem/codesystem-accessibility"/>
				<code value="cultcomp"/>
				<display value="Cultural competence"/>
				<userSelected value="true"/>
			</coding>
			<text value="Coordinates care with tribal healers of the Piscataway People"/>
		</valueCodeableConcept>
	</extension>
	
-->
	<identifier>
		<!-- Practitioner's NPI number -->
		<extension url="http://hl7.org/fhir/uv/vhdir/StructureDefinition/identifier-status">
			<valueCode value="active"/><!-- active  eh: check for deactive codes or randomize this -->
		</extension>
		<use value="official"/>
		<type>
			<coding>
				<system value="http://terminology.hl7.org/CodeSystem/v2-0203"/>
				<code value="PRN"/>
				<display value="Provider number"/>
				<userSelected value="true"/>
			</coding>
			<text value="NPI"/>
		</type>
		<system value="http://hl7.org/fhir/sid/us-npi"/>
		<value value="9995334207"/>
		<period>  <!--  EH: add more values and stop values to this -->
			<start value="2005-07-16T09:00:00-05:00"/>
		</period>
		<assigner>
			<display value="CMS"/>
		</assigner>
	</identifier>
	
	<active value="active"/> 
	<!-- This record is active  eh: randomize this -->
	<name>

		<use value="official"/>
		<text value="Keven Beier"/>
		<family value="Beier"/>
		<given value="Keven"/>
		<suffix value="MD"/>
	</name>
	<telecom>
		<!-- max of two-->
		<system value="phone"/>
		<value value="8607144820"/> <!-- eh: todo format phone -->
		<use value="work"/>
		<rank value="1"/>
	</telecom>
	<telecom>
		<!-- Practitioner's phone max of two-->
		<system value="phone"/>
		<value value="8607146581"/> <!-- eh: todo format phone -->
		<use value="work"/>
		<rank value="2"/>
	</telecom>
	<address>
		<!-- Home address is 1600 Pennsylvania Ave NW, Washington, DC 20006, USA at latitude 38.897957 and longitude -77.036560 -->
		<extension url="http://hl7.org/fhir/StructureDefinition/geolocation">
					<extension url="latitude">
							<valueDecimal value="41.774499"/>
					</extension>
					<extension url="longitude">
							<valueDecimal value="-72.699537"/>
					</extension>
			</extension>
		<use value="home"/>
		<type value="both"/> <!-- eh:  todo make this a choice -->
		<text value="114 WOODLAND ST, HARTFORD, CT 061051208"/>
		<line value="114 WOODLAND ST"/>
		<city value="HARTFORD"/>
		<state value="CT"/>
		<postalCode value="061051208"/>
		<country value="USA"/>
<!--  EH: todo add this in
		<period>
			<start value="1932-02-22"/> 
		</period>
	-->
	</address>
	<gender value="male"/>
	<birthDate value="1964-06-19"/> <!--eh: do we need this -->
	
	<qualification> 
		<extension url="http://hl7.org/fhir/uv/vhdir/StructureDefinition/practitioner-qualification">
			
			<!-- the license is currently active and valid in Washington, DC  eh: randomize this and make max of two -->
			<extension url="status">
				<valueCoding>
					<system value="http://hl7.org/fhir/resource-status"/>
					<code value="active"/>
					<display value="active"/>
				</valueCoding>
				
			</extension>
			<extension url="whereValid">
				<valueCodeableConcept>
					<coding>
						<system value="https://www.usps.com/"/>
						<code value="CT"/>
						<display value="Connecticut"/>
						<userSelected value="true"/>
					</coding>
					<text value="Connecticut"/>
				</valueCodeableConcept>
			</extension>
		</extension>
		<identifier>
			<!-- eh: tdo make max of two -->
			<extension url="http://hl7.org/fhir/uv/vhdir/StructureDefinition/identifier-status">
				<valueCode value="active"/> <!-- This record is active  eh: randomize this -->
			</extension>
			<use value="official"/>
			<type>
				<text value="Medical License number"/>
			</type>
			<system value="https://doh.ct.gov/bomed"/> <!-- This is made up for now ... will need to research  -->
			<value value="033435"/>
			<period>
				<start value="2018-06-19"/>  # ask how to create these...can randomize
				<end value="2021-06-19"/>
			</period>
			<assigner>
				<display value="Connecticut Board of Medicine"/>
			</assigner>
		</identifier>
		<code>
			<coding>
				<system value="http://www.wpc.edi.com/taxonomy"/>
				<code value="207RC0000X"/>
				<display value="Allopathic &amp; Osteopathic Physicians/Internal Medicine, Cardiovascular Disease"/>
				<userSelected value="true"/>
			</coding>
			<text value="Allopathic &amp; Osteopathic Physicians/Internal Medicine, Cardiovascular Disease"/>
		</code>
		<!--  eh: todo later ... discuss
		<period>
			<start value="2018-01-01"/>
			<end value="2020-01-01"/>
		</period>
		<issuer>
			<display value="http://qual_issuer"/>
		</issuer>
		-->
	</qualification><qualification> 
		<extension url="http://hl7.org/fhir/uv/vhdir/StructureDefinition/practitioner-qualification">
			
			<!-- the license is currently active and valid in Washington, DC  eh: randomize this and make max of two -->
			<extension url="status">
				<valueCoding>
					<system value="http://hl7.org/fhir/resource-status"/>
					<code value="active"/>
					<display value="active"/>
				</valueCoding>
				
			</extension>
			<extension url="whereValid">
				<valueCodeableConcept>
					<coding>
						<system value="https://www.usps.com/"/>
						<code value="CT"/>
						<display value="Connecticut"/>
						<userSelected value="true"/>
					</coding>
					<text value="Connecticut"/>
				</valueCodeableConcept>
			</extension>
		</extension>
		<identifier>
			<!-- eh: tdo make max of two -->
			<extension url="http://hl7.org/fhir/uv/vhdir/StructureDefinition/identifier-status">
				<valueCode value="active"/> <!-- This record is active  eh: randomize this -->
			</extension>
			<use value="official"/>
			<type>
				<text value="Medical License number"/>
			</type>
			<system value="https://doh.ct.gov/bomed"/> <!-- This is made up for now ... will need to research  -->
			<value value="033435"/>
			<period>
				<start value="2018-06-19"/>  # ask how to create these...can randomize
				<end value="2021-06-19"/>
			</period>
			<assigner>
				<display value="Connecticut Board of Medicine"/>
			</assigner>
		</identifier>
		<code>
			<coding>
				<system value="http://www.wpc.edi.com/taxonomy"/>
				<code value="207RA0001X"/>
				<display value="Allopathic &amp; Osteopathic Physicians/Internal Medicine, Cardiovascular Disease"/>
				<userSelected value="true"/>
			</coding>
			<text value="Allopathic &amp; Osteopathic Physicians/Internal Medicine, Cardiovascular Disease"/>
		</code>
		<!--  eh: todo later ... discuss
		<period>
			<start value="2018-01-01"/>
			<end value="2020-01-01"/>
		</period>
		<issuer>
			<display value="http://qual_issuer"/>
		</issuer>
		-->
	</qualification> <!-- repeating qualification element -->
	<communication>
		<!-- eh: todo
			<extension url="http://hl7.org/fhir/uv/vhdir/StructureDefinition/communication-proficiency">
			<valueCodeableConcept>
				<coding>
					<code value="5"/>
					<display value="Native or bilingual proficiency"/>
					<userSelected value="true"/>
				</coding>
			</valueCodeableConcept>
		</extension> -->
		<coding>
			<system value="urn:ietf:bcp:47"/>
			<code value="en"/>
			<display value="English"/>
			<userSelected value="true"/>
		</coding> 
		<text value="English"/>
	</communication> <!-- repeating qualification element -->
	</Practitioner></resource>
 <request>  <!-- ?? 0..1 Additional execution information (transaction/batch/history) -->
  <method value="PUT"/>
  <url value="Practitioner/vhdir-practitioner-9995334207"/><!-- 1..1 URL for HTTP equivalent of this entry -->
 </request>
</entry>
<entry>
 <fullUrl value="http://test.fhir.org/r4/vhdir-practitioner-9990283779"/><!-- 0..1 URI for resource (Absolute URL server address or URI for UUID/OID) -->
 <resource><Practitioner xmlns="http://hl7.org/fhir">
	<!-- synthetic practitioner -->
	
	<id value="vhdir-practitioner-9990283779"/>
	<meta>
		<versionId value="1"/>
		<profile value="http://hl7.org/fhir/uv/vhdir/StructureDefinition/vhdir-practitioner"/>
	</meta>
	
<!--*******************************

 A reference to the practitioner's personal electronic endpoint (independent of their role with an organization)

url = 'type' Describes the practitioner's digital certificate. In this case, an identity certificate used for digitally signing, associated with the DirectTrust framework

************************************

	<extension url="http://hl7.org/fhir/uv/vhdir/StructureDefinition/endpoint-reference">	
		<valueReference>
			<reference value="Endpoint/vhdir-practitioner-9990283779"/>
			<display value="Practitioner 9990283779 Direct address"/>
		</valueReference>
	</extension>
	<extension url="http://hl7.org/fhir/uv/vhdir/StructureDefinition/digitalcertificate">
		<extension url="type">
			<valueCoding>
				<system value="http://hl7.org/fhir/uv/vhdir/CodeSystem/codesystem-digitalcertificate"/>
				<code value="ind"/>
				<display value="Individual"/>
			</valueCoding>
		</extension>
		<extension url="use">
			<valueCoding>
				<system value="http://hl7.org/fhir/uv/vhdir/CodeSystem/codesystem-digitalcertificate"/>
				<code value="signing"/>
				<display value="Signing"/>
			</valueCoding>
		</extension>
		<extension url="certificateStandard">
			<valueCoding>
				<system value="http://hl7.org/fhir/uv/vhdir/CodeSystem/codesystem-digitalcertificate"/>
				<code value="x.509v3"/>
				<display value="x.509v3"/>
			</valueCoding>
		</extension>
		<extension url="certificate">
			<valueString value=""/>
		</extension>
		<extension url="expirationDate">
			<valueDate value="1970-09-03"/>
		</extension>
		<extension url="trustFramework">
			<valueCodeableConcept>
				<coding>
					<system value="http://hl7.org/fhir/uv/vhdir/CodeSystem/codesystem-digitalcertificate"/>
					<code value="direct"/>
					<display value="DirectTrust"/>
					<userSelected value="true"/>
				</coding>
			</valueCodeableConcept>
		</extension>
	</extension>
-->

<!--********************	e.g. The practitioner provides culturally competent care for a local Native American tribe, the Piscataway People *********


	<extension url="http://hl7.org/fhir/uv/vhdir/StructureDefinition/accessibility">
		<valueCodeableConcept>
			<coding>
				<system value="http://hl7.org/fhir/uv/vhdir/CodeSystem/codesystem-accessibility"/>
				<code value="cultcomp"/>
				<display value="Cultural competence"/>
				<userSelected value="true"/>
			</coding>
			<text value="Coordinates care with tribal healers of the Piscataway People"/>
		</valueCodeableConcept>
	</extension>
	
-->
	<identifier>
		<!-- Practitioner's NPI number -->
		<extension url="http://hl7.org/fhir/uv/vhdir/StructureDefinition/identifier-status">
			<valueCode value="active"/><!-- active  eh: check for deactive codes or randomize this -->
		</extension>
		<use value="official"/>
		<type>
			<coding>
				<system value="http://terminology.hl7.org/CodeSystem/v2-0203"/>
				<code value="PRN"/>
				<display value="Provider number"/>
				<userSelected value="true"/>
			</coding>
			<text value="NPI"/>
		</type>
		<system value="http://hl7.org/fhir/sid/us-npi"/>
		<value value="9990283779"/>
		<period>  <!--  EH: add more values and stop values to this -->
			<start value="2005-07-16T09:00:00-05:00"/>
		</period>
		<assigner>
			<display value="CMS"/>
		</assigner>
	</identifier>
	
	<active value="active"/> 
	<!-- This record is active  eh: randomize this -->
	<name>

		<use value="official"/>
		<text value="Archie Prohaska"/>
		<family value="Prohaska"/>
		<given value="Archie"/>
		<suffix value="MD"/>
	</name>
	<telecom>
		<!-- max of two-->
		<system value="phone"/>
		<value value="8602472137"/> <!-- eh: todo format phone -->
		<use value="work"/>
		<rank value="1"/>
	</telecom>
	<telecom>
		<!-- Practitioner's phone max of two-->
		<system value="phone"/>
		<value value="8602630253"/> <!-- eh: todo format phone -->
		<use value="work"/>
		<rank value="2"/>
	</telecom>
	<address>
		<!-- Home address is 1600 Pennsylvania Ave NW, Washington, DC 20006, USA at latitude 38.897957 and longitude -77.036560 -->
		<extension url="http://hl7.org/fhir/StructureDefinition/geolocation">
					<extension url="latitude">
							<valueDecimal value="41.774499"/>
					</extension>
					<extension url="longitude">
							<valueDecimal value="-72.699537"/>
					</extension>
			</extension>
		<use value="home"/>
		<type value="both"/> <!-- eh:  todo make this a choice -->
		<text value="1000 ASYLUM AVE, HARTFORD, CT 061051770"/>
		<line value="1000 ASYLUM AVE"/>
		<city value="HARTFORD"/>
		<state value="CT"/>
		<postalCode value="061051770"/>
		<country value="USA"/>
<!--  EH: todo add this in
		<period>
			<start value="1932-02-22"/> 
		</period>
	-->
	</address>
	<gender value="male"/>
	<birthDate value="1964-06-19"/> <!--eh: do we need this -->
	
	<qualification> 
		<extension url="http://hl7.org/fhir/uv/vhdir/StructureDefinition/practitioner-qualification">
			
			<!-- the license is currently active and valid in Washington, DC  eh: randomize this and make max of two -->
			<extension url="status">
				<valueCoding>
					<system value="http://hl7.org/fhir/resource-status"/>
					<code value="active"/>
					<display value="active"/>
				</valueCoding>
				
			</extension>
			<extension url="whereValid">
				<valueCodeableConcept>
					<coding>
						<system value="https://www.usps.com/"/>
						<code value="CT"/>
						<display value="Connecticut"/>
						<userSelected value="true"/>
					</coding>
					<text value="Connecticut"/>
				</valueCodeableConcept>
			</extension>
		</extension>
		<identifier>
			<!-- eh: tdo make max of two -->
			<extension url="http://hl7.org/fhir/uv/vhdir/StructureDefinition/identifier-status">
				<valueCode value="active"/> <!-- This record is active  eh: randomize this -->
			</extension>
			<use value="official"/>
			<type>
				<text value="Medical License number"/>
			</type>
			<system value="https://doh.ct.gov/bomed"/> <!-- This is made up for now ... will need to research  -->
			<value value="028901"/>
			<period>
				<start value="2018-06-19"/>  # ask how to create these...can randomize
				<end value="2021-06-19"/>
			</period>
			<assigner>
				<display value="Connecticut Board of Medicine"/>
			</assigner>
		</identifier>
		<code>
			<coding>
				<system value="http://www.wpc.edi.com/taxonomy"/>
				<code value="207RE0101X"/>
				<display value="Allopathic &amp; Osteopathic Physicians/Internal Medicine, Endocrinology, Diabetes &amp; Metabolism"/>
				<userSelected value="true"/>
			</coding>
			<text value="Allopathic &amp; Osteopathic Physicians/Internal Medicine, Endocrinology, Diabetes &amp; Metabolism"/>
		</code>
		<!--  eh: todo later ... discuss
		<period>
			<start value="2018-01-01"/>
			<end value="2020-01-01"/>
		</period>
		<issuer>
			<display value="http://qual_issuer"/>
		</issuer>
		-->
	</qualification> <!-- repeating qualification element -->
	<communication>
		<!-- eh: todo
			<extension url="http://hl7.org/fhir/uv/vhdir/StructureDefinition/communication-proficiency">
			<valueCodeableConcept>
				<coding>
					<code value="5"/>
					<display value="Native or bilingual proficiency"/>
					<userSelected value="true"/>
				</coding>
			</valueCodeableConcept>
		</extension> -->
		<coding>
			<system value="urn:ietf:bcp:47"/>
			<code value="en"/>
			<display value="English"/>
			<userSelected value="true"/>
		</coding> 
		<text value="English"/>
	</communication> <!-- repeating qualification element -->
	</Practitioner></resource>
 <request>  <!-- ?? 0..1 Additional execution information (transaction/batch/history) -->
  <method value="PUT"/>
  <url value="Practitioner/vhdir-practitioner-9990283779"/><!-- 1..1 URL for HTTP equivalent of this entry -->
 </request>
</entry>
<entry>
 <fullUrl value="http://test.fhir.org/r4/vhdir-practitioner-9992607917"/><!-- 0..1 URI for resource (Absolute URL server address or URI for UUID/OID) -->
 <resource><Practitioner xmlns="http://hl7.org/fhir">
	<!-- synthetic practitioner -->
	
	<id value="vhdir-practitioner-9992607917"/>
	<meta>
		<versionId value="1"/>
		<profile value="http://hl7.org/fhir/uv/vhdir/StructureDefinition/vhdir-practitioner"/>
	</meta>
	
<!--*******************************

 A reference to the practitioner's personal electronic endpoint (independent of their role with an organization)

url = 'type' Describes the practitioner's digital certificate. In this case, an identity certificate used for digitally signing, associated with the DirectTrust framework

************************************

	<extension url="http://hl7.org/fhir/uv/vhdir/StructureDefinition/endpoint-reference">	
		<valueReference>
			<reference value="Endpoint/vhdir-practitioner-9992607917"/>
			<display value="Practitioner 9992607917 Direct address"/>
		</valueReference>
	</extension>
	<extension url="http://hl7.org/fhir/uv/vhdir/StructureDefinition/digitalcertificate">
		<extension url="type">
			<valueCoding>
				<system value="http://hl7.org/fhir/uv/vhdir/CodeSystem/codesystem-digitalcertificate"/>
				<code value="ind"/>
				<display value="Individual"/>
			</valueCoding>
		</extension>
		<extension url="use">
			<valueCoding>
				<system value="http://hl7.org/fhir/uv/vhdir/CodeSystem/codesystem-digitalcertificate"/>
				<code value="signing"/>
				<display value="Signing"/>
			</valueCoding>
		</extension>
		<extension url="certificateStandard">
			<valueCoding>
				<system value="http://hl7.org/fhir/uv/vhdir/CodeSystem/codesystem-digitalcertificate"/>
				<code value="x.509v3"/>
				<display value="x.509v3"/>
			</valueCoding>
		</extension>
		<extension url="certificate">
			<valueString value=""/>
		</extension>
		<extension url="expirationDate">
			<valueDate value="1970-09-03"/>
		</extension>
		<extension url="trustFramework">
			<valueCodeableConcept>
				<coding>
					<system value="http://hl7.org/fhir/uv/vhdir/CodeSystem/codesystem-digitalcertificate"/>
					<code value="direct"/>
					<display value="DirectTrust"/>
					<userSelected value="true"/>
				</coding>
			</valueCodeableConcept>
		</extension>
	</extension>
-->

<!--********************	e.g. The practitioner provides culturally competent care for a local Native American tribe, the Piscataway People *********


	<extension url="http://hl7.org/fhir/uv/vhdir/StructureDefinition/accessibility">
		<valueCodeableConcept>
			<coding>
				<system value="http://hl7.org/fhir/uv/vhdir/CodeSystem/codesystem-accessibility"/>
				<code value="cultcomp"/>
				<display value="Cultural competence"/>
				<userSelected value="true"/>
			</coding>
			<text value="Coordinates care with tribal healers of the Piscataway People"/>
		</valueCodeableConcept>
	</extension>
	
-->
	<identifier>
		<!-- Practitioner's NPI number -->
		<extension url="http://hl7.org/fhir/uv/vhdir/StructureDefinition/identifier-status">
			<valueCode value="active"/><!-- active  eh: check for deactive codes or randomize this -->
		</extension>
		<use value="official"/>
		<type>
			<coding>
				<system value="http://terminology.hl7.org/CodeSystem/v2-0203"/>
				<code value="PRN"/>
				<display value="Provider number"/>
				<userSelected value="true"/>
			</coding>
			<text value="NPI"/>
		</type>
		<system value="http://hl7.org/fhir/sid/us-npi"/>
		<value value="9992607917"/>
		<period>  <!--  EH: add more values and stop values to this -->
			<start value="2005-07-16T09:00:00-05:00"/>
		</period>
		<assigner>
			<display value="CMS"/>
		</assigner>
	</identifier>
	
	<active value="active"/> 
	<!-- This record is active  eh: randomize this -->
	<name>

		<use value="official"/>
		<text value="Ra&#250;l Herrera"/>
		<family value="Herrera"/>
		<given value="Ra&#250;l"/>
		<suffix value="MD"/>
	</name>
	<telecom>
		<!-- max of two-->
		<system value="phone"/>
		<value value="6173638293"/> <!-- eh: todo format phone -->
		<use value="work"/>
		<rank value="1"/>
	</telecom>
	<telecom>
		<!-- Practitioner's phone max of two-->
		<system value="phone"/>
		<value value="6173638929"/> <!-- eh: todo format phone -->
		<use value="work"/>
		<rank value="2"/>
	</telecom>
	<address>
		<!-- Home address is 1600 Pennsylvania Ave NW, Washington, DC 20006, USA at latitude 38.897957 and longitude -77.036560 -->
		<extension url="http://hl7.org/fhir/StructureDefinition/geolocation">
					<extension url="latitude">
							<valueDecimal value="42.284197"/>
					</extension>
					<extension url="longitude">
							<valueDecimal value="-71.120896"/>
					</extension>
			</extension>
		<use value="home"/>
		<type value="both"/> <!-- eh:  todo make this a choice -->
		<text value="1200 CENTRE ST, ROSLINDALE, MA 021311000"/>
		<line value="1200 CENTRE ST"/>
		<city value="ROSLINDALE"/>
		<state value="MA"/>
		<postalCode value="021311000"/>
		<country value="USA"/>
<!--  EH: todo add this in
		<period>
			<start value="1932-02-22"/> 
		</period>
	-->
	</address>
	<gender value="male"/>
	<birthDate value="1964-06-19"/> <!--eh: do we need this -->
	
	<qualification> 
		<extension url="http://hl7.org/fhir/uv/vhdir/StructureDefinition/practitioner-qualification">
			
			<!-- the license is currently active and valid in Washington, DC  eh: randomize this and make max of two -->
			<extension url="status">
				<valueCoding>
					<system value="http://hl7.org/fhir/resource-status"/>
					<code value="active"/>
					<display value="active"/>
				</valueCoding>
				
			</extension>
			<extension url="whereValid">
				<valueCodeableConcept>
					<coding>
						<system value="https://www.usps.com/"/>
						<code value="MA"/>
						<display value="Massachusetts"/>
						<userSelected value="true"/>
					</coding>
					<text value="Massachusetts"/>
				</valueCodeableConcept>
			</extension>
		</extension>
		<identifier>
			<!-- eh: tdo make max of two -->
			<extension url="http://hl7.org/fhir/uv/vhdir/StructureDefinition/identifier-status">
				<valueCode value="active"/> <!-- This record is active  eh: randomize this -->
			</extension>
			<use value="official"/>
			<type>
				<text value="Medical License number"/>
			</type>
			<system value="https://doh.ma.gov/bomed"/> <!-- This is made up for now ... will need to research  -->
			<value value="246645"/>
			<period>
				<start value="2018-06-19"/>  # ask how to create these...can randomize
				<end value="2021-06-19"/>
			</period>
			<assigner>
				<display value="Massachusetts Board of Medicine"/>
			</assigner>
		</identifier>
		<code>
			<coding>
				<system value="http://www.wpc.edi.com/taxonomy"/>
				<code value="207RG0300X"/>
				<display value="Allopathic &amp; Osteopathic Physicians/Internal Medicine, Geriatric Medicine"/>
				<userSelected value="true"/>
			</coding>
			<text value="Allopathic &amp; Osteopathic Physicians/Internal Medicine, Geriatric Medicine"/>
		</code>
		<!--  eh: todo later ... discuss
		<period>
			<start value="2018-01-01"/>
			<end value="2020-01-01"/>
		</period>
		<issuer>
			<display value="http://qual_issuer"/>
		</issuer>
		-->
	</qualification> <!-- repeating qualification element -->
	<communication>
		<!-- eh: todo
			<extension url="http://hl7.org/fhir/uv/vhdir/StructureDefinition/communication-proficiency">
			<valueCodeableConcept>
				<coding>
					<code value="5"/>
					<display value="Native or bilingual proficiency"/>
					<userSelected value="true"/>
				</coding>
			</valueCodeableConcept>
		</extension> -->
		<coding>
			<system value="urn:ietf:bcp:47"/>
			<code value="en"/>
			<display value="English"/>
			<userSelected value="true"/>
		</coding> 
		<text value="English"/>
	</communication> <!-- repeating qualification element -->
	</Practitioner></resource>
 <request>  <!-- ?? 0..1 Additional execution information (transaction/batch/history) -->
  <method value="PUT"/>
  <url value="Practitioner/vhdir-practitioner-9992607917"/><!-- 1..1 URL for HTTP equivalent of this entry -->
 </request>
</entry>
<entry>
 <fullUrl value="http://test.fhir.org/r4/vhdir-practitioner-9996940463"/><!-- 0..1 URI for resource (Absolute URL server address or URI for UUID/OID) -->
 <resource><Practitioner xmlns="http://hl7.org/fhir">
	<!-- synthetic practitioner -->
	
	<id value="vhdir-practitioner-9996940463"/>
	<meta>
		<versionId value="1"/>
		<profile value="http://hl7.org/fhir/uv/vhdir/StructureDefinition/vhdir-practitioner"/>
	</meta>
	
<!--*******************************

 A reference to the practitioner's personal electronic endpoint (independent of their role with an organization)

url = 'type' Describes the practitioner's digital certificate. In this case, an identity certificate used for digitally signing, associated with the DirectTrust framework

************************************

	<extension url="http://hl7.org/fhir/uv/vhdir/StructureDefinition/endpoint-reference">	
		<valueReference>
			<reference value="Endpoint/vhdir-practitioner-9996940463"/>
			<display value="Practitioner 9996940463 Direct address"/>
		</valueReference>
	</extension>
	<extension url="http://hl7.org/fhir/uv/vhdir/StructureDefinition/digitalcertificate">
		<extension url="type">
			<valueCoding>
				<system value="http://hl7.org/fhir/uv/vhdir/CodeSystem/codesystem-digitalcertificate"/>
				<code value="ind"/>
				<display value="Individual"/>
			</valueCoding>
		</extension>
		<extension url="use">
			<valueCoding>
				<system value="http://hl7.org/fhir/uv/vhdir/CodeSystem/codesystem-digitalcertificate"/>
				<code value="signing"/>
				<display value="Signing"/>
			</valueCoding>
		</extension>
		<extension url="certificateStandard">
			<valueCoding>
				<system value="http://hl7.org/fhir/uv/vhdir/CodeSystem/codesystem-digitalcertificate"/>
				<code value="x.509v3"/>
				<display value="x.509v3"/>
			</valueCoding>
		</extension>
		<extension url="certificate">
			<valueString value=""/>
		</extension>
		<extension url="expirationDate">
			<valueDate value="1970-09-03"/>
		</extension>
		<extension url="trustFramework">
			<valueCodeableConcept>
				<coding>
					<system value="http://hl7.org/fhir/uv/vhdir/CodeSystem/codesystem-digitalcertificate"/>
					<code value="direct"/>
					<display value="DirectTrust"/>
					<userSelected value="true"/>
				</coding>
			</valueCodeableConcept>
		</extension>
	</extension>
-->

<!--********************	e.g. The practitioner provides culturally competent care for a local Native American tribe, the Piscataway People *********


	<extension url="http://hl7.org/fhir/uv/vhdir/StructureDefinition/accessibility">
		<valueCodeableConcept>
			<coding>
				<system value="http://hl7.org/fhir/uv/vhdir/CodeSystem/codesystem-accessibility"/>
				<code value="cultcomp"/>
				<display value="Cultural competence"/>
				<userSelected value="true"/>
			</coding>
			<text value="Coordinates care with tribal healers of the Piscataway People"/>
		</valueCodeableConcept>
	</extension>
	
-->
	<identifier>
		<!-- Practitioner's NPI number -->
		<extension url="http://hl7.org/fhir/uv/vhdir/StructureDefinition/identifier-status">
			<valueCode value="active"/><!-- active  eh: check for deactive codes or randomize this -->
		</extension>
		<use value="official"/>
		<type>
			<coding>
				<system value="http://terminology.hl7.org/CodeSystem/v2-0203"/>
				<code value="PRN"/>
				<display value="Provider number"/>
				<userSelected value="true"/>
			</coding>
			<text value="NPI"/>
		</type>
		<system value="http://hl7.org/fhir/sid/us-npi"/>
		<value value="9996940463"/>
		<period>  <!--  EH: add more values and stop values to this -->
			<start value="2005-07-16T09:00:00-05:00"/>
		</period>
		<assigner>
			<display value="CMS"/>
		</assigner>
	</identifier>
	
	<active value="active"/> 
	<!-- This record is active  eh: randomize this -->
	<name>

		<use value="official"/>
		<text value="Ezequiel Emmerich"/>
		<family value="Emmerich"/>
		<given value="Ezequiel"/>
		<suffix value="MD"/>
	</name>
	<telecom>
		<!-- max of two-->
		<system value="phone"/>
		<value value="8602472137"/> <!-- eh: todo format phone -->
		<use value="work"/>
		<rank value="1"/>
	</telecom>
	<telecom>
		<!-- Practitioner's phone max of two-->
		<system value="phone"/>
		<value value="8602630253"/> <!-- eh: todo format phone -->
		<use value="work"/>
		<rank value="2"/>
	</telecom>
	<address>
		<!-- Home address is 1600 Pennsylvania Ave NW, Washington, DC 20006, USA at latitude 38.897957 and longitude -77.036560 -->
		<extension url="http://hl7.org/fhir/StructureDefinition/geolocation">
					<extension url="latitude">
							<valueDecimal value="41.779799"/>
					</extension>
					<extension url="longitude">
							<valueDecimal value="-72.621365"/>
					</extension>
			</extension>
		<use value="home"/>
		<type value="both"/> <!-- eh:  todo make this a choice -->
		<text value="893 MAIN ST STE 202, EAST HARTFORD, CT 061082293"/>
		<line value="893 MAIN ST STE 202"/>
		<city value="EAST HARTFORD"/>
		<state value="CT"/>
		<postalCode value="061082293"/>
		<country value="USA"/>
<!--  EH: todo add this in
		<period>
			<start value="1932-02-22"/> 
		</period>
	-->
	</address>
	<gender value="male"/>
	<birthDate value="1964-06-19"/> <!--eh: do we need this -->
	
	<qualification> 
		<extension url="http://hl7.org/fhir/uv/vhdir/StructureDefinition/practitioner-qualification">
			
			<!-- the license is currently active and valid in Washington, DC  eh: randomize this and make max of two -->
			<extension url="status">
				<valueCoding>
					<system value="http://hl7.org/fhir/resource-status"/>
					<code value="active"/>
					<display value="active"/>
				</valueCoding>
				
			</extension>
			<extension url="whereValid">
				<valueCodeableConcept>
					<coding>
						<system value="https://www.usps.com/"/>
						<code value="CT"/>
						<display value="Connecticut"/>
						<userSelected value="true"/>
					</coding>
					<text value="Connecticut"/>
				</valueCodeableConcept>
			</extension>
		</extension>
		<identifier>
			<!-- eh: tdo make max of two -->
			<extension url="http://hl7.org/fhir/uv/vhdir/StructureDefinition/identifier-status">
				<valueCode value="active"/> <!-- This record is active  eh: randomize this -->
			</extension>
			<use value="official"/>
			<type>
				<text value="Medical License number"/>
			</type>
			<system value="https://doh.ct.gov/bomed"/> <!-- This is made up for now ... will need to research  -->
			<value value="042533"/>
			<period>
				<start value="2018-06-19"/>  # ask how to create these...can randomize
				<end value="2021-06-19"/>
			</period>
			<assigner>
				<display value="Connecticut Board of Medicine"/>
			</assigner>
		</identifier>
		<code>
			<coding>
				<system value="http://www.wpc.edi.com/taxonomy"/>
				<code value="207RE0101X"/>
				<display value="Allopathic &amp; Osteopathic Physicians/Internal Medicine, Endocrinology, Diabetes &amp; Metabolism"/>
				<userSelected value="true"/>
			</coding>
			<text value="Allopathic &amp; Osteopathic Physicians/Internal Medicine, Endocrinology, Diabetes &amp; Metabolism"/>
		</code>
		<!--  eh: todo later ... discuss
		<period>
			<start value="2018-01-01"/>
			<end value="2020-01-01"/>
		</period>
		<issuer>
			<display value="http://qual_issuer"/>
		</issuer>
		-->
	</qualification> <!-- repeating qualification element -->
	<communication>
		<!-- eh: todo
			<extension url="http://hl7.org/fhir/uv/vhdir/StructureDefinition/communication-proficiency">
			<valueCodeableConcept>
				<coding>
					<code value="5"/>
					<display value="Native or bilingual proficiency"/>
					<userSelected value="true"/>
				</coding>
			</valueCodeableConcept>
		</extension> -->
		<coding>
			<system value="urn:ietf:bcp:47"/>
			<code value="en"/>
			<display value="English"/>
			<userSelected value="true"/>
		</coding> 
		<text value="English"/>
	</communication> <!-- repeating qualification element -->
	</Practitioner></resource>
 <request>  <!-- ?? 0..1 Additional execution information (transaction/batch/history) -->
  <method value="PUT"/>
  <url value="Practitioner/vhdir-practitioner-9996940463"/><!-- 1..1 URL for HTTP equivalent of this entry -->
 </request>
</entry>
<entry>
 <fullUrl value="http://test.fhir.org/r4/vhdir-practitioner-9993011061"/><!-- 0..1 URI for resource (Absolute URL server address or URI for UUID/OID) -->
 <resource><Practitioner xmlns="http://hl7.org/fhir">
	<!-- synthetic practitioner -->
	
	<id value="vhdir-practitioner-9993011061"/>
	<meta>
		<versionId value="1"/>
		<profile value="http://hl7.org/fhir/uv/vhdir/StructureDefinition/vhdir-practitioner"/>
	</meta>
	
<!--*******************************

 A reference to the practitioner's personal electronic endpoint (independent of their role with an organization)

url = 'type' Describes the practitioner's digital certificate. In this case, an identity certificate used for digitally signing, associated with the DirectTrust framework

************************************

	<extension url="http://hl7.org/fhir/uv/vhdir/StructureDefinition/endpoint-reference">	
		<valueReference>
			<reference value="Endpoint/vhdir-practitioner-9993011061"/>
			<display value="Practitioner 9993011061 Direct address"/>
		</valueReference>
	</extension>
	<extension url="http://hl7.org/fhir/uv/vhdir/StructureDefinition/digitalcertificate">
		<extension url="type">
			<valueCoding>
				<system value="http://hl7.org/fhir/uv/vhdir/CodeSystem/codesystem-digitalcertificate"/>
				<code value="ind"/>
				<display value="Individual"/>
			</valueCoding>
		</extension>
		<extension url="use">
			<valueCoding>
				<system value="http://hl7.org/fhir/uv/vhdir/CodeSystem/codesystem-digitalcertificate"/>
				<code value="signing"/>
				<display value="Signing"/>
			</valueCoding>
		</extension>
		<extension url="certificateStandard">
			<valueCoding>
				<system value="http://hl7.org/fhir/uv/vhdir/CodeSystem/codesystem-digitalcertificate"/>
				<code value="x.509v3"/>
				<display value="x.509v3"/>
			</valueCoding>
		</extension>
		<extension url="certificate">
			<valueString value=""/>
		</extension>
		<extension url="expirationDate">
			<valueDate value="1970-09-03"/>
		</extension>
		<extension url="trustFramework">
			<valueCodeableConcept>
				<coding>
					<system value="http://hl7.org/fhir/uv/vhdir/CodeSystem/codesystem-digitalcertificate"/>
					<code value="direct"/>
					<display value="DirectTrust"/>
					<userSelected value="true"/>
				</coding>
			</valueCodeableConcept>
		</extension>
	</extension>
-->

<!--********************	e.g. The practitioner provides culturally competent care for a local Native American tribe, the Piscataway People *********


	<extension url="http://hl7.org/fhir/uv/vhdir/StructureDefinition/accessibility">
		<valueCodeableConcept>
			<coding>
				<system value="http://hl7.org/fhir/uv/vhdir/CodeSystem/codesystem-accessibility"/>
				<code value="cultcomp"/>
				<display value="Cultural competence"/>
				<userSelected value="true"/>
			</coding>
			<text value="Coordinates care with tribal healers of the Piscataway People"/>
		</valueCodeableConcept>
	</extension>
	
-->
	<identifier>
		<!-- Practitioner's NPI number -->
		<extension url="http://hl7.org/fhir/uv/vhdir/StructureDefinition/identifier-status">
			<valueCode value="active"/><!-- active  eh: check for deactive codes or randomize this -->
		</extension>
		<use value="official"/>
		<type>
			<coding>
				<system value="http://terminology.hl7.org/CodeSystem/v2-0203"/>
				<code value="PRN"/>
				<display value="Provider number"/>
				<userSelected value="true"/>
			</coding>
			<text value="NPI"/>
		</type>
		<system value="http://hl7.org/fhir/sid/us-npi"/>
		<value value="9993011061"/>
		<period>  <!--  EH: add more values and stop values to this -->
			<start value="2005-07-16T09:00:00-05:00"/>
		</period>
		<assigner>
			<display value="CMS"/>
		</assigner>
	</identifier>
	
	<active value="active"/> 
	<!-- This record is active  eh: randomize this -->
	<name>

		<use value="official"/>
		<text value="Erik Reilly"/>
		<family value="Reilly"/>
		<given value="Erik"/>
		<suffix value="AU.D."/>
	</name>
	<telecom>
		<!-- max of two-->
		<system value="phone"/>
		<value value="9789221888"/> <!-- eh: todo format phone -->
		<use value="work"/>
		<rank value="1"/>
	</telecom>
	<telecom>
		<!-- Practitioner's phone max of two-->
		<system value="phone"/>
		<value value="9789274608"/> <!-- eh: todo format phone -->
		<use value="work"/>
		<rank value="2"/>
	</telecom>
	<address>
		<!-- Home address is 1600 Pennsylvania Ave NW, Washington, DC 20006, USA at latitude 38.897957 and longitude -77.036560 -->
		<extension url="http://hl7.org/fhir/StructureDefinition/geolocation">
					<extension url="latitude">
							<valueDecimal value="42.565145"/>
					</extension>
					<extension url="longitude">
							<valueDecimal value="-70.853843"/>
					</extension>
			</extension>
		<use value="home"/>
		<type value="both"/> <!-- eh:  todo make this a choice -->
		<text value="266 CABOT ST, BEVERLY, MA 019153370"/>
		<line value="266 CABOT ST"/>
		<city value="BEVERLY"/>
		<state value="MA"/>
		<postalCode value="019153370"/>
		<country value="USA"/>
<!--  EH: todo add this in
		<period>
			<start value="1932-02-22"/> 
		</period>
	-->
	</address>
	<gender value="male"/>
	<birthDate value="1964-06-19"/> <!--eh: do we need this -->
	
	<qualification> 
		<extension url="http://hl7.org/fhir/uv/vhdir/StructureDefinition/practitioner-qualification">
			
			<!-- the license is currently active and valid in Washington, DC  eh: randomize this and make max of two -->
			<extension url="status">
				<valueCoding>
					<system value="http://hl7.org/fhir/resource-status"/>
					<code value="active"/>
					<display value="active"/>
				</valueCoding>
				
			</extension>
			<extension url="whereValid">
				<valueCodeableConcept>
					<coding>
						<system value="https://www.usps.com/"/>
						<code value="MA"/>
						<display value="Massachusetts"/>
						<userSelected value="true"/>
					</coding>
					<text value="Massachusetts"/>
				</valueCodeableConcept>
			</extension>
		</extension>
		<identifier>
			<!-- eh: tdo make max of two -->
			<extension url="http://hl7.org/fhir/uv/vhdir/StructureDefinition/identifier-status">
				<valueCode value="active"/> <!-- This record is active  eh: randomize this -->
			</extension>
			<use value="official"/>
			<type>
				<text value="Medical License number"/>
			</type>
			<system value="https://doh.ma.gov/bomed"/> <!-- This is made up for now ... will need to research  -->
			<value value="123"/>
			<period>
				<start value="2018-06-19"/>  # ask how to create these...can randomize
				<end value="2021-06-19"/>
			</period>
			<assigner>
				<display value="Massachusetts Board of Medicine"/>
			</assigner>
		</identifier>
		<code>
			<coding>
				<system value="http://www.wpc.edi.com/taxonomy"/>
				<code value="231H00000X"/>
				<display value="Speech, Language and Hearing Service Providers/Audiologist"/>
				<userSelected value="true"/>
			</coding>
			<text value="Speech, Language and Hearing Service Providers/Audiologist"/>
		</code>
		<!--  eh: todo later ... discuss
		<period>
			<start value="2018-01-01"/>
			<end value="2020-01-01"/>
		</period>
		<issuer>
			<display value="http://qual_issuer"/>
		</issuer>
		-->
	</qualification><qualification> 
		<extension url="http://hl7.org/fhir/uv/vhdir/StructureDefinition/practitioner-qualification">
			
			<!-- the license is currently active and valid in Washington, DC  eh: randomize this and make max of two -->
			<extension url="status">
				<valueCoding>
					<system value="http://hl7.org/fhir/resource-status"/>
					<code value="active"/>
					<display value="active"/>
				</valueCoding>
				
			</extension>
			<extension url="whereValid">
				<valueCodeableConcept>
					<coding>
						<system value="https://www.usps.com/"/>
						<code value="MA"/>
						<display value="Massachusetts"/>
						<userSelected value="true"/>
					</coding>
					<text value="Massachusetts"/>
				</valueCodeableConcept>
			</extension>
		</extension>
		<identifier>
			<!-- eh: tdo make max of two -->
			<extension url="http://hl7.org/fhir/uv/vhdir/StructureDefinition/identifier-status">
				<valueCode value="active"/> <!-- This record is active  eh: randomize this -->
			</extension>
			<use value="official"/>
			<type>
				<text value="Medical License number"/>
			</type>
			<system value="https://doh.ma.gov/bomed"/> <!-- This is made up for now ... will need to research  -->
			<value value="123"/>
			<period>
				<start value="2018-06-19"/>  # ask how to create these...can randomize
				<end value="2021-06-19"/>
			</period>
			<assigner>
				<display value="Massachusetts Board of Medicine"/>
			</assigner>
		</identifier>
		<code>
			<coding>
				<system value="http://www.wpc.edi.com/taxonomy"/>
				<code value="237600000X"/>
				<display value="Speech, Language and Hearing Service Providers/Audiologist"/>
				<userSelected value="true"/>
			</coding>
			<text value="Speech, Language and Hearing Service Providers/Audiologist"/>
		</code>
		<!--  eh: todo later ... discuss
		<period>
			<start value="2018-01-01"/>
			<end value="2020-01-01"/>
		</period>
		<issuer>
			<display value="http://qual_issuer"/>
		</issuer>
		-->
	</qualification> <!-- repeating qualification element -->
	<communication>
		<!-- eh: todo
			<extension url="http://hl7.org/fhir/uv/vhdir/StructureDefinition/communication-proficiency">
			<valueCodeableConcept>
				<coding>
					<code value="5"/>
					<display value="Native or bilingual proficiency"/>
					<userSelected value="true"/>
				</coding>
			</valueCodeableConcept>
		</extension> -->
		<coding>
			<system value="urn:ietf:bcp:47"/>
			<code value="en"/>
			<display value="English"/>
			<userSelected value="true"/>
		</coding> 
		<text value="English"/>
	</communication> <!-- repeating qualification element -->
	</Practitioner></resource>
 <request>  <!-- ?? 0..1 Additional execution information (transaction/batch/history) -->
  <method value="PUT"/>
  <url value="Practitioner/vhdir-practitioner-9993011061"/><!-- 1..1 URL for HTTP equivalent of this entry -->
 </request>
</entry>
<entry>
 <fullUrl value="http://test.fhir.org/r4/vhdir-practitioner-9998667539"/><!-- 0..1 URI for resource (Absolute URL server address or URI for UUID/OID) -->
 <resource><Practitioner xmlns="http://hl7.org/fhir">
	<!-- synthetic practitioner -->
	
	<id value="vhdir-practitioner-9998667539"/>
	<meta>
		<versionId value="1"/>
		<profile value="http://hl7.org/fhir/uv/vhdir/StructureDefinition/vhdir-practitioner"/>
	</meta>
	
<!--*******************************

 A reference to the practitioner's personal electronic endpoint (independent of their role with an organization)

url = 'type' Describes the practitioner's digital certificate. In this case, an identity certificate used for digitally signing, associated with the DirectTrust framework

************************************

	<extension url="http://hl7.org/fhir/uv/vhdir/StructureDefinition/endpoint-reference">	
		<valueReference>
			<reference value="Endpoint/vhdir-practitioner-9998667539"/>
			<display value="Practitioner 9998667539 Direct address"/>
		</valueReference>
	</extension>
	<extension url="http://hl7.org/fhir/uv/vhdir/StructureDefinition/digitalcertificate">
		<extension url="type">
			<valueCoding>
				<system value="http://hl7.org/fhir/uv/vhdir/CodeSystem/codesystem-digitalcertificate"/>
				<code value="ind"/>
				<display value="Individual"/>
			</valueCoding>
		</extension>
		<extension url="use">
			<valueCoding>
				<system value="http://hl7.org/fhir/uv/vhdir/CodeSystem/codesystem-digitalcertificate"/>
				<code value="signing"/>
				<display value="Signing"/>
			</valueCoding>
		</extension>
		<extension url="certificateStandard">
			<valueCoding>
				<system value="http://hl7.org/fhir/uv/vhdir/CodeSystem/codesystem-digitalcertificate"/>
				<code value="x.509v3"/>
				<display value="x.509v3"/>
			</valueCoding>
		</extension>
		<extension url="certificate">
			<valueString value=""/>
		</extension>
		<extension url="expirationDate">
			<valueDate value="1970-09-03"/>
		</extension>
		<extension url="trustFramework">
			<valueCodeableConcept>
				<coding>
					<system value="http://hl7.org/fhir/uv/vhdir/CodeSystem/codesystem-digitalcertificate"/>
					<code value="direct"/>
					<display value="DirectTrust"/>
					<userSelected value="true"/>
				</coding>
			</valueCodeableConcept>
		</extension>
	</extension>
-->

<!--********************	e.g. The practitioner provides culturally competent care for a local Native American tribe, the Piscataway People *********


	<extension url="http://hl7.org/fhir/uv/vhdir/StructureDefinition/accessibility">
		<valueCodeableConcept>
			<coding>
				<system value="http://hl7.org/fhir/uv/vhdir/CodeSystem/codesystem-accessibility"/>
				<code value="cultcomp"/>
				<display value="Cultural competence"/>
				<userSelected value="true"/>
			</coding>
			<text value="Coordinates care with tribal healers of the Piscataway People"/>
		</valueCodeableConcept>
	</extension>
	
-->
	<identifier>
		<!-- Practitioner's NPI number -->
		<extension url="http://hl7.org/fhir/uv/vhdir/StructureDefinition/identifier-status">
			<valueCode value="active"/><!-- active  eh: check for deactive codes or randomize this -->
		</extension>
		<use value="official"/>
		<type>
			<coding>
				<system value="http://terminology.hl7.org/CodeSystem/v2-0203"/>
				<code value="PRN"/>
				<display value="Provider number"/>
				<userSelected value="true"/>
			</coding>
			<text value="NPI"/>
		</type>
		<system value="http://hl7.org/fhir/sid/us-npi"/>
		<value value="9998667539"/>
		<period>  <!--  EH: add more values and stop values to this -->
			<start value="2005-07-16T09:00:00-05:00"/>
		</period>
		<assigner>
			<display value="CMS"/>
		</assigner>
	</identifier>
	
	<active value="active"/> 
	<!-- This record is active  eh: randomize this -->
	<name>

		<use value="official"/>
		<text value="Cristobal Arevalo"/>
		<family value="Arevalo"/>
		<given value="Cristobal"/>
		<suffix value="M.D."/>
	</name>
	<telecom>
		<!-- max of two-->
		<system value="phone"/>
		<value value="6179196263"/> <!-- eh: todo format phone -->
		<use value="work"/>
		<rank value="1"/>
	</telecom>
	<telecom>
		<!-- Practitioner's phone max of two-->
		<system value="phone"/>
		<value value="5555555555"/> <!-- eh: todo format phone -->
		<use value="work"/>
		<rank value="2"/>
	</telecom>
	<address>
		<!-- Home address is 1600 Pennsylvania Ave NW, Washington, DC 20006, USA at latitude 38.897957 and longitude -77.036560 -->
		<extension url="http://hl7.org/fhir/StructureDefinition/geolocation">
					<extension url="latitude">
							<valueDecimal value="42.342043"/>
					</extension>
					<extension url="longitude">
							<valueDecimal value="-71.096848"/>
					</extension>
			</extension>
		<use value="home"/>
		<type value="both"/> <!-- eh:  todo make this a choice -->
		<text value="300 LONGWOOD AVE, BOSTON, MA 021155724"/>
		<line value="300 LONGWOOD AVE"/>
		<city value="BOSTON"/>
		<state value="MA"/>
		<postalCode value="021155724"/>
		<country value="USA"/>
<!--  EH: todo add this in
		<period>
			<start value="1932-02-22"/> 
		</period>
	-->
	</address>
	<gender value="male"/>
	<birthDate value="1964-06-19"/> <!--eh: do we need this -->
	
	<qualification> 
		<extension url="http://hl7.org/fhir/uv/vhdir/StructureDefinition/practitioner-qualification">
			
			<!-- the license is currently active and valid in Washington, DC  eh: randomize this and make max of two -->
			<extension url="status">
				<valueCoding>
					<system value="http://hl7.org/fhir/resource-status"/>
					<code value="active"/>
					<display value="active"/>
				</valueCoding>
				
			</extension>
			<extension url="whereValid">
				<valueCodeableConcept>
					<coding>
						<system value="https://www.usps.com/"/>
						<code value="MA"/>
						<display value="Massachusetts"/>
						<userSelected value="true"/>
					</coding>
					<text value="Massachusetts"/>
				</valueCodeableConcept>
			</extension>
		</extension>
		<identifier>
			<!-- eh: tdo make max of two -->
			<extension url="http://hl7.org/fhir/uv/vhdir/StructureDefinition/identifier-status">
				<valueCode value="active"/> <!-- This record is active  eh: randomize this -->
			</extension>
			<use value="official"/>
			<type>
				<text value="Medical License number"/>
			</type>
			<system value="https://doh.ma.gov/bomed"/> <!-- This is made up for now ... will need to research  -->
			<value value="47912"/>
			<period>
				<start value="2018-06-19"/>  # ask how to create these...can randomize
				<end value="2021-06-19"/>
			</period>
			<assigner>
				<display value="Massachusetts Board of Medicine"/>
			</assigner>
		</identifier>
		<code>
			<coding>
				<system value="http://www.wpc.edi.com/taxonomy"/>
				<code value="208000000X"/>
				<display value="Taxonomy code display"/>
				<userSelected value="true"/>
			</coding>
			<text value="Taxonomy code display"/>
		</code>
		<!--  eh: todo later ... discuss
		<period>
			<start value="2018-01-01"/>
			<end value="2020-01-01"/>
		</period>
		<issuer>
			<display value="http://qual_issuer"/>
		</issuer>
		-->
	</qualification> <!-- repeating qualification element -->
	<communication>
		<!-- eh: todo
			<extension url="http://hl7.org/fhir/uv/vhdir/StructureDefinition/communication-proficiency">
			<valueCodeableConcept>
				<coding>
					<code value="5"/>
					<display value="Native or bilingual proficiency"/>
					<userSelected value="true"/>
				</coding>
			</valueCodeableConcept>
		</extension> -->
		<coding>
			<system value="urn:ietf:bcp:47"/>
			<code value="en"/>
			<display value="English"/>
			<userSelected value="true"/>
		</coding> 
		<text value="English"/>
	</communication> <!-- repeating qualification element -->
	</Practitioner></resource>
 <request>  <!-- ?? 0..1 Additional execution information (transaction/batch/history) -->
  <method value="PUT"/>
  <url value="Practitioner/vhdir-practitioner-9998667539"/><!-- 1..1 URL for HTTP equivalent of this entry -->
 </request>
</entry>
<entry>
 <fullUrl value="http://test.fhir.org/r4/vhdir-practitioner-9992001940"/><!-- 0..1 URI for resource (Absolute URL server address or URI for UUID/OID) -->
 <resource><Practitioner xmlns="http://hl7.org/fhir">
	<!-- synthetic practitioner -->
	
	<id value="vhdir-practitioner-9992001940"/>
	<meta>
		<versionId value="1"/>
		<profile value="http://hl7.org/fhir/uv/vhdir/StructureDefinition/vhdir-practitioner"/>
	</meta>
	
<!--*******************************

 A reference to the practitioner's personal electronic endpoint (independent of their role with an organization)

url = 'type' Describes the practitioner's digital certificate. In this case, an identity certificate used for digitally signing, associated with the DirectTrust framework

************************************

	<extension url="http://hl7.org/fhir/uv/vhdir/StructureDefinition/endpoint-reference">	
		<valueReference>
			<reference value="Endpoint/vhdir-practitioner-9992001940"/>
			<display value="Practitioner 9992001940 Direct address"/>
		</valueReference>
	</extension>
	<extension url="http://hl7.org/fhir/uv/vhdir/StructureDefinition/digitalcertificate">
		<extension url="type">
			<valueCoding>
				<system value="http://hl7.org/fhir/uv/vhdir/CodeSystem/codesystem-digitalcertificate"/>
				<code value="ind"/>
				<display value="Individual"/>
			</valueCoding>
		</extension>
		<extension url="use">
			<valueCoding>
				<system value="http://hl7.org/fhir/uv/vhdir/CodeSystem/codesystem-digitalcertificate"/>
				<code value="signing"/>
				<display value="Signing"/>
			</valueCoding>
		</extension>
		<extension url="certificateStandard">
			<valueCoding>
				<system value="http://hl7.org/fhir/uv/vhdir/CodeSystem/codesystem-digitalcertificate"/>
				<code value="x.509v3"/>
				<display value="x.509v3"/>
			</valueCoding>
		</extension>
		<extension url="certificate">
			<valueString value=""/>
		</extension>
		<extension url="expirationDate">
			<valueDate value="1970-09-03"/>
		</extension>
		<extension url="trustFramework">
			<valueCodeableConcept>
				<coding>
					<system value="http://hl7.org/fhir/uv/vhdir/CodeSystem/codesystem-digitalcertificate"/>
					<code value="direct"/>
					<display value="DirectTrust"/>
					<userSelected value="true"/>
				</coding>
			</valueCodeableConcept>
		</extension>
	</extension>
-->

<!--********************	e.g. The practitioner provides culturally competent care for a local Native American tribe, the Piscataway People *********


	<extension url="http://hl7.org/fhir/uv/vhdir/StructureDefinition/accessibility">
		<valueCodeableConcept>
			<coding>
				<system value="http://hl7.org/fhir/uv/vhdir/CodeSystem/codesystem-accessibility"/>
				<code value="cultcomp"/>
				<display value="Cultural competence"/>
				<userSelected value="true"/>
			</coding>
			<text value="Coordinates care with tribal healers of the Piscataway People"/>
		</valueCodeableConcept>
	</extension>
	
-->
	<identifier>
		<!-- Practitioner's NPI number -->
		<extension url="http://hl7.org/fhir/uv/vhdir/StructureDefinition/identifier-status">
			<valueCode value="active"/><!-- active  eh: check for deactive codes or randomize this -->
		</extension>
		<use value="official"/>
		<type>
			<coding>
				<system value="http://terminology.hl7.org/CodeSystem/v2-0203"/>
				<code value="PRN"/>
				<display value="Provider number"/>
				<userSelected value="true"/>
			</coding>
			<text value="NPI"/>
		</type>
		<system value="http://hl7.org/fhir/sid/us-npi"/>
		<value value="9992001940"/>
		<period>  <!--  EH: add more values and stop values to this -->
			<start value="2005-07-16T09:00:00-05:00"/>
		</period>
		<assigner>
			<display value="CMS"/>
		</assigner>
	</identifier>
	
	<active value="active"/> 
	<!-- This record is active  eh: randomize this -->
	<name>

		<use value="official"/>
		<text value="Sol Mante"/>
		<family value="Mante"/>
		<given value="Sol"/>
		<suffix value="DO"/>
	</name>
	<telecom>
		<!-- max of two-->
		<system value="phone"/>
		<value value="8607144749"/> <!-- eh: todo format phone -->
		<use value="work"/>
		<rank value="1"/>
	</telecom>
	<telecom>
		<!-- Practitioner's phone max of two-->
		<system value="phone"/>
		<value value="8607146581"/> <!-- eh: todo format phone -->
		<use value="work"/>
		<rank value="2"/>
	</telecom>
	<address>
		<!-- Home address is 1600 Pennsylvania Ave NW, Washington, DC 20006, USA at latitude 38.897957 and longitude -77.036560 -->
		<extension url="http://hl7.org/fhir/StructureDefinition/geolocation">
					<extension url="latitude">
							<valueDecimal value="41.774499"/>
					</extension>
					<extension url="longitude">
							<valueDecimal value="-72.699537"/>
					</extension>
			</extension>
		<use value="home"/>
		<type value="both"/> <!-- eh:  todo make this a choice -->
		<text value="1000 ASYLUM AVE, HARTFORD, CT 061051719"/>
		<line value="1000 ASYLUM AVE"/>
		<city value="HARTFORD"/>
		<state value="CT"/>
		<postalCode value="061051719"/>
		<country value="USA"/>
<!--  EH: todo add this in
		<period>
			<start value="1932-02-22"/> 
		</period>
	-->
	</address>
	<gender value="male"/>
	<birthDate value="1964-06-19"/> <!--eh: do we need this -->
	
	<qualification> 
		<extension url="http://hl7.org/fhir/uv/vhdir/StructureDefinition/practitioner-qualification">
			
			<!-- the license is currently active and valid in Washington, DC  eh: randomize this and make max of two -->
			<extension url="status">
				<valueCoding>
					<system value="http://hl7.org/fhir/resource-status"/>
					<code value="active"/>
					<display value="active"/>
				</valueCoding>
				
			</extension>
			<extension url="whereValid">
				<valueCodeableConcept>
					<coding>
						<system value="https://www.usps.com/"/>
						<code value="CT"/>
						<display value="Connecticut"/>
						<userSelected value="true"/>
					</coding>
					<text value="Connecticut"/>
				</valueCodeableConcept>
			</extension>
		</extension>
		<identifier>
			<!-- eh: tdo make max of two -->
			<extension url="http://hl7.org/fhir/uv/vhdir/StructureDefinition/identifier-status">
				<valueCode value="active"/> <!-- This record is active  eh: randomize this -->
			</extension>
			<use value="official"/>
			<type>
				<text value="Medical License number"/>
			</type>
			<system value="https://doh.ct.gov/bomed"/> <!-- This is made up for now ... will need to research  -->
			<value value="041490"/>
			<period>
				<start value="2018-06-19"/>  # ask how to create these...can randomize
				<end value="2021-06-19"/>
			</period>
			<assigner>
				<display value="Connecticut Board of Medicine"/>
			</assigner>
		</identifier>
		<code>
			<coding>
				<system value="http://www.wpc.edi.com/taxonomy"/>
				<code value="207RR0500X"/>
				<display value="Allopathic &amp; Osteopathic Physicians/Internal Medicine, Rheumatology"/>
				<userSelected value="true"/>
			</coding>
			<text value="Allopathic &amp; Osteopathic Physicians/Internal Medicine, Rheumatology"/>
		</code>
		<!--  eh: todo later ... discuss
		<period>
			<start value="2018-01-01"/>
			<end value="2020-01-01"/>
		</period>
		<issuer>
			<display value="http://qual_issuer"/>
		</issuer>
		-->
	</qualification> <!-- repeating qualification element -->
	<communication>
		<!-- eh: todo
			<extension url="http://hl7.org/fhir/uv/vhdir/StructureDefinition/communication-proficiency">
			<valueCodeableConcept>
				<coding>
					<code value="5"/>
					<display value="Native or bilingual proficiency"/>
					<userSelected value="true"/>
				</coding>
			</valueCodeableConcept>
		</extension> -->
		<coding>
			<system value="urn:ietf:bcp:47"/>
			<code value="en"/>
			<display value="English"/>
			<userSelected value="true"/>
		</coding> 
		<text value="English"/>
	</communication> <!-- repeating qualification element -->
	</Practitioner></resource>
 <request>  <!-- ?? 0..1 Additional execution information (transaction/batch/history) -->
  <method value="PUT"/>
  <url value="Practitioner/vhdir-practitioner-9992001940"/><!-- 1..1 URL for HTTP equivalent of this entry -->
 </request>
</entry>
<entry>
 <fullUrl value="http://test.fhir.org/r4/vhdir-practitioner-9990980735"/><!-- 0..1 URI for resource (Absolute URL server address or URI for UUID/OID) -->
 <resource><Practitioner xmlns="http://hl7.org/fhir">
	<!-- synthetic practitioner -->
	
	<id value="vhdir-practitioner-9990980735"/>
	<meta>
		<versionId value="1"/>
		<profile value="http://hl7.org/fhir/uv/vhdir/StructureDefinition/vhdir-practitioner"/>
	</meta>
	
<!--*******************************

 A reference to the practitioner's personal electronic endpoint (independent of their role with an organization)

url = 'type' Describes the practitioner's digital certificate. In this case, an identity certificate used for digitally signing, associated with the DirectTrust framework

************************************

	<extension url="http://hl7.org/fhir/uv/vhdir/StructureDefinition/endpoint-reference">	
		<valueReference>
			<reference value="Endpoint/vhdir-practitioner-9990980735"/>
			<display value="Practitioner 9990980735 Direct address"/>
		</valueReference>
	</extension>
	<extension url="http://hl7.org/fhir/uv/vhdir/StructureDefinition/digitalcertificate">
		<extension url="type">
			<valueCoding>
				<system value="http://hl7.org/fhir/uv/vhdir/CodeSystem/codesystem-digitalcertificate"/>
				<code value="ind"/>
				<display value="Individual"/>
			</valueCoding>
		</extension>
		<extension url="use">
			<valueCoding>
				<system value="http://hl7.org/fhir/uv/vhdir/CodeSystem/codesystem-digitalcertificate"/>
				<code value="signing"/>
				<display value="Signing"/>
			</valueCoding>
		</extension>
		<extension url="certificateStandard">
			<valueCoding>
				<system value="http://hl7.org/fhir/uv/vhdir/CodeSystem/codesystem-digitalcertificate"/>
				<code value="x.509v3"/>
				<display value="x.509v3"/>
			</valueCoding>
		</extension>
		<extension url="certificate">
			<valueString value=""/>
		</extension>
		<extension url="expirationDate">
			<valueDate value="1970-09-03"/>
		</extension>
		<extension url="trustFramework">
			<valueCodeableConcept>
				<coding>
					<system value="http://hl7.org/fhir/uv/vhdir/CodeSystem/codesystem-digitalcertificate"/>
					<code value="direct"/>
					<display value="DirectTrust"/>
					<userSelected value="true"/>
				</coding>
			</valueCodeableConcept>
		</extension>
	</extension>
-->

<!--********************	e.g. The practitioner provides culturally competent care for a local Native American tribe, the Piscataway People *********


	<extension url="http://hl7.org/fhir/uv/vhdir/StructureDefinition/accessibility">
		<valueCodeableConcept>
			<coding>
				<system value="http://hl7.org/fhir/uv/vhdir/CodeSystem/codesystem-accessibility"/>
				<code value="cultcomp"/>
				<display value="Cultural competence"/>
				<userSelected value="true"/>
			</coding>
			<text value="Coordinates care with tribal healers of the Piscataway People"/>
		</valueCodeableConcept>
	</extension>
	
-->
	<identifier>
		<!-- Practitioner's NPI number -->
		<extension url="http://hl7.org/fhir/uv/vhdir/StructureDefinition/identifier-status">
			<valueCode value="active"/><!-- active  eh: check for deactive codes or randomize this -->
		</extension>
		<use value="official"/>
		<type>
			<coding>
				<system value="http://terminology.hl7.org/CodeSystem/v2-0203"/>
				<code value="PRN"/>
				<display value="Provider number"/>
				<userSelected value="true"/>
			</coding>
			<text value="NPI"/>
		</type>
		<system value="http://hl7.org/fhir/sid/us-npi"/>
		<value value="9990980735"/>
		<period>  <!--  EH: add more values and stop values to this -->
			<start value="2005-07-16T09:00:00-05:00"/>
		</period>
		<assigner>
			<display value="CMS"/>
		</assigner>
	</identifier>
	
	<active value="active"/> 
	<!-- This record is active  eh: randomize this -->
	<name>

		<use value="official"/>
		<text value="Abdul Reichel"/>
		<family value="Reichel"/>
		<given value="Abdul"/>
		<suffix value="MD"/>
	</name>
	<telecom>
		<!-- max of two-->
		<system value="phone"/>
		<value value="8607144680"/> <!-- eh: todo format phone -->
		<use value="work"/>
		<rank value="1"/>
	</telecom>
	<telecom>
		<!-- Practitioner's phone max of two-->
		<system value="phone"/>
		<value value="8607146581"/> <!-- eh: todo format phone -->
		<use value="work"/>
		<rank value="2"/>
	</telecom>
	<address>
		<!-- Home address is 1600 Pennsylvania Ave NW, Washington, DC 20006, USA at latitude 38.897957 and longitude -77.036560 -->
		<extension url="http://hl7.org/fhir/StructureDefinition/geolocation">
					<extension url="latitude">
							<valueDecimal value="41.774499"/>
					</extension>
					<extension url="longitude">
							<valueDecimal value="-72.699537"/>
					</extension>
			</extension>
		<use value="home"/>
		<type value="both"/> <!-- eh:  todo make this a choice -->
		<text value="94 WOODLAND ST, HARTFORD, CT 061051217"/>
		<line value="94 WOODLAND ST"/>
		<city value="HARTFORD"/>
		<state value="CT"/>
		<postalCode value="061051217"/>
		<country value="USA"/>
<!--  EH: todo add this in
		<period>
			<start value="1932-02-22"/> 
		</period>
	-->
	</address>
	<gender value="male"/>
	<birthDate value="1964-06-19"/> <!--eh: do we need this -->
	
	<qualification> 
		<extension url="http://hl7.org/fhir/uv/vhdir/StructureDefinition/practitioner-qualification">
			
			<!-- the license is currently active and valid in Washington, DC  eh: randomize this and make max of two -->
			<extension url="status">
				<valueCoding>
					<system value="http://hl7.org/fhir/resource-status"/>
					<code value="active"/>
					<display value="active"/>
				</valueCoding>
				
			</extension>
			<extension url="whereValid">
				<valueCodeableConcept>
					<coding>
						<system value="https://www.usps.com/"/>
						<code value="CT"/>
						<display value="Connecticut"/>
						<userSelected value="true"/>
					</coding>
					<text value="Connecticut"/>
				</valueCodeableConcept>
			</extension>
		</extension>
		<identifier>
			<!-- eh: tdo make max of two -->
			<extension url="http://hl7.org/fhir/uv/vhdir/StructureDefinition/identifier-status">
				<valueCode value="active"/> <!-- This record is active  eh: randomize this -->
			</extension>
			<use value="official"/>
			<type>
				<text value="Medical License number"/>
			</type>
			<system value="https://doh.ct.gov/bomed"/> <!-- This is made up for now ... will need to research  -->
			<value value="030148"/>
			<period>
				<start value="2018-06-19"/>  # ask how to create these...can randomize
				<end value="2021-06-19"/>
			</period>
			<assigner>
				<display value="Connecticut Board of Medicine"/>
			</assigner>
		</identifier>
		<code>
			<coding>
				<system value="http://www.wpc.edi.com/taxonomy"/>
				<code value="207RH0000X"/>
				<display value="Allopathic &amp; Osteopathic Physicians/Internal Medicine, Hematology"/>
				<userSelected value="true"/>
			</coding>
			<text value="Allopathic &amp; Osteopathic Physicians/Internal Medicine, Hematology"/>
		</code>
		<!--  eh: todo later ... discuss
		<period>
			<start value="2018-01-01"/>
			<end value="2020-01-01"/>
		</period>
		<issuer>
			<display value="http://qual_issuer"/>
		</issuer>
		-->
	</qualification><qualification> 
		<extension url="http://hl7.org/fhir/uv/vhdir/StructureDefinition/practitioner-qualification">
			
			<!-- the license is currently active and valid in Washington, DC  eh: randomize this and make max of two -->
			<extension url="status">
				<valueCoding>
					<system value="http://hl7.org/fhir/resource-status"/>
					<code value="active"/>
					<display value="active"/>
				</valueCoding>
				
			</extension>
			<extension url="whereValid">
				<valueCodeableConcept>
					<coding>
						<system value="https://www.usps.com/"/>
						<code value="CT"/>
						<display value="Connecticut"/>
						<userSelected value="true"/>
					</coding>
					<text value="Connecticut"/>
				</valueCodeableConcept>
			</extension>
		</extension>
		<identifier>
			<!-- eh: tdo make max of two -->
			<extension url="http://hl7.org/fhir/uv/vhdir/StructureDefinition/identifier-status">
				<valueCode value="active"/> <!-- This record is active  eh: randomize this -->
			</extension>
			<use value="official"/>
			<type>
				<text value="Medical License number"/>
			</type>
			<system value="https://doh.ct.gov/bomed"/> <!-- This is made up for now ... will need to research  -->
			<value value="030148"/>
			<period>
				<start value="2018-06-19"/>  # ask how to create these...can randomize
				<end value="2021-06-19"/>
			</period>
			<assigner>
				<display value="Connecticut Board of Medicine"/>
			</assigner>
		</identifier>
		<code>
			<coding>
				<system value="http://www.wpc.edi.com/taxonomy"/>
				<code value="207RH0003X"/>
				<display value="Allopathic &amp; Osteopathic Physicians/Internal Medicine, Hematology"/>
				<userSelected value="true"/>
			</coding>
			<text value="Allopathic &amp; Osteopathic Physicians/Internal Medicine, Hematology"/>
		</code>
		<!--  eh: todo later ... discuss
		<period>
			<start value="2018-01-01"/>
			<end value="2020-01-01"/>
		</period>
		<issuer>
			<display value="http://qual_issuer"/>
		</issuer>
		-->
	</qualification> <!-- repeating qualification element -->
	<communication>
		<!-- eh: todo
			<extension url="http://hl7.org/fhir/uv/vhdir/StructureDefinition/communication-proficiency">
			<valueCodeableConcept>
				<coding>
					<code value="5"/>
					<display value="Native or bilingual proficiency"/>
					<userSelected value="true"/>
				</coding>
			</valueCodeableConcept>
		</extension> -->
		<coding>
			<system value="urn:ietf:bcp:47"/>
			<code value="en"/>
			<display value="English"/>
			<userSelected value="true"/>
		</coding> 
		<text value="English"/>
	</communication> <!-- repeating qualification element -->
	</Practitioner></resource>
 <request>  <!-- ?? 0..1 Additional execution information (transaction/batch/history) -->
  <method value="PUT"/>
  <url value="Practitioner/vhdir-practitioner-9990980735"/><!-- 1..1 URL for HTTP equivalent of this entry -->
 </request>
</entry>
<entry>
 <fullUrl value="http://test.fhir.org/r4/vhdir-practitioner-9995233261"/><!-- 0..1 URI for resource (Absolute URL server address or URI for UUID/OID) -->
 <resource><Practitioner xmlns="http://hl7.org/fhir">
	<!-- synthetic practitioner -->
	
	<id value="vhdir-practitioner-9995233261"/>
	<meta>
		<versionId value="1"/>
		<profile value="http://hl7.org/fhir/uv/vhdir/StructureDefinition/vhdir-practitioner"/>
	</meta>
	
<!--*******************************

 A reference to the practitioner's personal electronic endpoint (independent of their role with an organization)

url = 'type' Describes the practitioner's digital certificate. In this case, an identity certificate used for digitally signing, associated with the DirectTrust framework

************************************

	<extension url="http://hl7.org/fhir/uv/vhdir/StructureDefinition/endpoint-reference">	
		<valueReference>
			<reference value="Endpoint/vhdir-practitioner-9995233261"/>
			<display value="Practitioner 9995233261 Direct address"/>
		</valueReference>
	</extension>
	<extension url="http://hl7.org/fhir/uv/vhdir/StructureDefinition/digitalcertificate">
		<extension url="type">
			<valueCoding>
				<system value="http://hl7.org/fhir/uv/vhdir/CodeSystem/codesystem-digitalcertificate"/>
				<code value="ind"/>
				<display value="Individual"/>
			</valueCoding>
		</extension>
		<extension url="use">
			<valueCoding>
				<system value="http://hl7.org/fhir/uv/vhdir/CodeSystem/codesystem-digitalcertificate"/>
				<code value="signing"/>
				<display value="Signing"/>
			</valueCoding>
		</extension>
		<extension url="certificateStandard">
			<valueCoding>
				<system value="http://hl7.org/fhir/uv/vhdir/CodeSystem/codesystem-digitalcertificate"/>
				<code value="x.509v3"/>
				<display value="x.509v3"/>
			</valueCoding>
		</extension>
		<extension url="certificate">
			<valueString value=""/>
		</extension>
		<extension url="expirationDate">
			<valueDate value="1970-09-03"/>
		</extension>
		<extension url="trustFramework">
			<valueCodeableConcept>
				<coding>
					<system value="http://hl7.org/fhir/uv/vhdir/CodeSystem/codesystem-digitalcertificate"/>
					<code value="direct"/>
					<display value="DirectTrust"/>
					<userSelected value="true"/>
				</coding>
			</valueCodeableConcept>
		</extension>
	</extension>
-->

<!--********************	e.g. The practitioner provides culturally competent care for a local Native American tribe, the Piscataway People *********


	<extension url="http://hl7.org/fhir/uv/vhdir/StructureDefinition/accessibility">
		<valueCodeableConcept>
			<coding>
				<system value="http://hl7.org/fhir/uv/vhdir/CodeSystem/codesystem-accessibility"/>
				<code value="cultcomp"/>
				<display value="Cultural competence"/>
				<userSelected value="true"/>
			</coding>
			<text value="Coordinates care with tribal healers of the Piscataway People"/>
		</valueCodeableConcept>
	</extension>
	
-->
	<identifier>
		<!-- Practitioner's NPI number -->
		<extension url="http://hl7.org/fhir/uv/vhdir/StructureDefinition/identifier-status">
			<valueCode value="active"/><!-- active  eh: check for deactive codes or randomize this -->
		</extension>
		<use value="official"/>
		<type>
			<coding>
				<system value="http://terminology.hl7.org/CodeSystem/v2-0203"/>
				<code value="PRN"/>
				<display value="Provider number"/>
				<userSelected value="true"/>
			</coding>
			<text value="NPI"/>
		</type>
		<system value="http://hl7.org/fhir/sid/us-npi"/>
		<value value="9995233261"/>
		<period>  <!--  EH: add more values and stop values to this -->
			<start value="2005-07-16T09:00:00-05:00"/>
		</period>
		<assigner>
			<display value="CMS"/>
		</assigner>
	</identifier>
	
	<active value="active"/> 
	<!-- This record is active  eh: randomize this -->
	<name>

		<use value="official"/>
		<text value="Silas Thompson"/>
		<family value="Thompson"/>
		<given value="Silas"/>
		<suffix value="M.D.1208"/>
	</name>
	<telecom>
		<!-- max of two-->
		<system value="phone"/>
		<value value="4019195222"/> <!-- eh: todo format phone -->
		<use value="work"/>
		<rank value="1"/>
	</telecom>
	<telecom>
		<!-- Practitioner's phone max of two-->
		<system value="phone"/>
		<value value="4019195227"/> <!-- eh: todo format phone -->
		<use value="work"/>
		<rank value="2"/>
	</telecom>
	<address>
		<!-- Home address is 1600 Pennsylvania Ave NW, Washington, DC 20006, USA at latitude 38.897957 and longitude -77.036560 -->
		<extension url="http://hl7.org/fhir/StructureDefinition/geolocation">
					<extension url="latitude">
							<valueDecimal value="41.813429"/>
					</extension>
					<extension url="longitude">
							<valueDecimal value="-71.363348"/>
					</extension>
			</extension>
		<use value="home"/>
		<type value="both"/> <!-- eh:  todo make this a choice -->
		<text value="400 MASSASOIT AVE, E PROVIDENCE, RI 029142012"/>
		<line value="400 MASSASOIT AVE"/>
		<city value="E PROVIDENCE"/>
		<state value="RI"/>
		<postalCode value="029142012"/>
		<country value="USA"/>
<!--  EH: todo add this in
		<period>
			<start value="1932-02-22"/> 
		</period>
	-->
	</address>
	<gender value="male"/>
	<birthDate value="1964-06-19"/> <!--eh: do we need this -->
	
	<qualification> 
		<extension url="http://hl7.org/fhir/uv/vhdir/StructureDefinition/practitioner-qualification">
			
			<!-- the license is currently active and valid in Washington, DC  eh: randomize this and make max of two -->
			<extension url="status">
				<valueCoding>
					<system value="http://hl7.org/fhir/resource-status"/>
					<code value="active"/>
					<display value="active"/>
				</valueCoding>
				
			</extension>
			<extension url="whereValid">
				<valueCodeableConcept>
					<coding>
						<system value="https://www.usps.com/"/>
						<code value="RI"/>
						<display value="Rhode Island"/>
						<userSelected value="true"/>
					</coding>
					<text value="Rhode Island"/>
				</valueCodeableConcept>
			</extension>
		</extension>
		<identifier>
			<!-- eh: tdo make max of two -->
			<extension url="http://hl7.org/fhir/uv/vhdir/StructureDefinition/identifier-status">
				<valueCode value="active"/> <!-- This record is active  eh: randomize this -->
			</extension>
			<use value="official"/>
			<type>
				<text value="Medical License number"/>
			</type>
			<system value="https://doh.ri.gov/bomed"/> <!-- This is made up for now ... will need to research  -->
			<value value="RI8073"/>
			<period>
				<start value="2018-06-19"/>  # ask how to create these...can randomize
				<end value="2021-06-19"/>
			</period>
			<assigner>
				<display value="Rhode Island Board of Medicine"/>
			</assigner>
		</identifier>
		<code>
			<coding>
				<system value="http://www.wpc.edi.com/taxonomy"/>
				<code value="207X00000X"/>
				<display value="Allopathic &amp; Osteopathic Physicians/Orthopedic Surgery"/>
				<userSelected value="true"/>
			</coding>
			<text value="Allopathic &amp; Osteopathic Physicians/Orthopedic Surgery"/>
		</code>
		<!--  eh: todo later ... discuss
		<period>
			<start value="2018-01-01"/>
			<end value="2020-01-01"/>
		</period>
		<issuer>
			<display value="http://qual_issuer"/>
		</issuer>
		-->
	</qualification> <!-- repeating qualification element -->
	<communication>
		<!-- eh: todo
			<extension url="http://hl7.org/fhir/uv/vhdir/StructureDefinition/communication-proficiency">
			<valueCodeableConcept>
				<coding>
					<code value="5"/>
					<display value="Native or bilingual proficiency"/>
					<userSelected value="true"/>
				</coding>
			</valueCodeableConcept>
		</extension> -->
		<coding>
			<system value="urn:ietf:bcp:47"/>
			<code value="en"/>
			<display value="English"/>
			<userSelected value="true"/>
		</coding> 
		<text value="English"/>
	</communication> <!-- repeating qualification element -->
	</Practitioner></resource>
 <request>  <!-- ?? 0..1 Additional execution information (transaction/batch/history) -->
  <method value="PUT"/>
  <url value="Practitioner/vhdir-practitioner-9995233261"/><!-- 1..1 URL for HTTP equivalent of this entry -->
 </request>
</entry>
<entry>
 <fullUrl value="http://test.fhir.org/r4/vhdir-practitioner-9993011228"/><!-- 0..1 URI for resource (Absolute URL server address or URI for UUID/OID) -->
 <resource><Practitioner xmlns="http://hl7.org/fhir">
	<!-- synthetic practitioner -->
	
	<id value="vhdir-practitioner-9993011228"/>
	<meta>
		<versionId value="1"/>
		<profile value="http://hl7.org/fhir/uv/vhdir/StructureDefinition/vhdir-practitioner"/>
	</meta>
	
<!--*******************************

 A reference to the practitioner's personal electronic endpoint (independent of their role with an organization)

url = 'type' Describes the practitioner's digital certificate. In this case, an identity certificate used for digitally signing, associated with the DirectTrust framework

************************************

	<extension url="http://hl7.org/fhir/uv/vhdir/StructureDefinition/endpoint-reference">	
		<valueReference>
			<reference value="Endpoint/vhdir-practitioner-9993011228"/>
			<display value="Practitioner 9993011228 Direct address"/>
		</valueReference>
	</extension>
	<extension url="http://hl7.org/fhir/uv/vhdir/StructureDefinition/digitalcertificate">
		<extension url="type">
			<valueCoding>
				<system value="http://hl7.org/fhir/uv/vhdir/CodeSystem/codesystem-digitalcertificate"/>
				<code value="ind"/>
				<display value="Individual"/>
			</valueCoding>
		</extension>
		<extension url="use">
			<valueCoding>
				<system value="http://hl7.org/fhir/uv/vhdir/CodeSystem/codesystem-digitalcertificate"/>
				<code value="signing"/>
				<display value="Signing"/>
			</valueCoding>
		</extension>
		<extension url="certificateStandard">
			<valueCoding>
				<system value="http://hl7.org/fhir/uv/vhdir/CodeSystem/codesystem-digitalcertificate"/>
				<code value="x.509v3"/>
				<display value="x.509v3"/>
			</valueCoding>
		</extension>
		<extension url="certificate">
			<valueString value=""/>
		</extension>
		<extension url="expirationDate">
			<valueDate value="1970-09-03"/>
		</extension>
		<extension url="trustFramework">
			<valueCodeableConcept>
				<coding>
					<system value="http://hl7.org/fhir/uv/vhdir/CodeSystem/codesystem-digitalcertificate"/>
					<code value="direct"/>
					<display value="DirectTrust"/>
					<userSelected value="true"/>
				</coding>
			</valueCodeableConcept>
		</extension>
	</extension>
-->

<!--********************	e.g. The practitioner provides culturally competent care for a local Native American tribe, the Piscataway People *********


	<extension url="http://hl7.org/fhir/uv/vhdir/StructureDefinition/accessibility">
		<valueCodeableConcept>
			<coding>
				<system value="http://hl7.org/fhir/uv/vhdir/CodeSystem/codesystem-accessibility"/>
				<code value="cultcomp"/>
				<display value="Cultural competence"/>
				<userSelected value="true"/>
			</coding>
			<text value="Coordinates care with tribal healers of the Piscataway People"/>
		</valueCodeableConcept>
	</extension>
	
-->
	<identifier>
		<!-- Practitioner's NPI number -->
		<extension url="http://hl7.org/fhir/uv/vhdir/StructureDefinition/identifier-status">
			<valueCode value="active"/><!-- active  eh: check for deactive codes or randomize this -->
		</extension>
		<use value="official"/>
		<type>
			<coding>
				<system value="http://terminology.hl7.org/CodeSystem/v2-0203"/>
				<code value="PRN"/>
				<display value="Provider number"/>
				<userSelected value="true"/>
			</coding>
			<text value="NPI"/>
		</type>
		<system value="http://hl7.org/fhir/sid/us-npi"/>
		<value value="9993011228"/>
		<period>  <!--  EH: add more values and stop values to this -->
			<start value="2005-07-16T09:00:00-05:00"/>
		</period>
		<assigner>
			<display value="CMS"/>
		</assigner>
	</identifier>
	
	<active value="active"/> 
	<!-- This record is active  eh: randomize this -->
	<name>

		<use value="official"/>
		<text value="Gussie Huels"/>
		<family value="Huels"/>
		<given value="Gussie"/>
		<suffix value="O. D."/>
	</name>
	<telecom>
		<!-- max of two-->
		<system value="phone"/>
		<value value="4137335155"/> <!-- eh: todo format phone -->
		<use value="work"/>
		<rank value="1"/>
	</telecom>
	<telecom>
		<!-- Practitioner's phone max of two-->
		<system value="phone"/>
		<value value="4137335119"/> <!-- eh: todo format phone -->
		<use value="work"/>
		<rank value="2"/>
	</telecom>
	<address>
		<!-- Home address is 1600 Pennsylvania Ave NW, Washington, DC 20006, USA at latitude 38.897957 and longitude -77.036560 -->
		<extension url="http://hl7.org/fhir/StructureDefinition/geolocation">
					<extension url="latitude">
							<valueDecimal value="42.080594"/>
					</extension>
					<extension url="longitude">
							<valueDecimal value="-72.558081"/>
					</extension>
			</extension>
		<use value="home"/>
		<type value="both"/> <!-- eh:  todo make this a choice -->
		<text value="453 SUMNER AVE, SPRINGFIELD, MA 011082320"/>
		<line value="453 SUMNER AVE"/>
		<city value="SPRINGFIELD"/>
		<state value="MA"/>
		<postalCode value="011082320"/>
		<country value="USA"/>
<!--  EH: todo add this in
		<period>
			<start value="1932-02-22"/> 
		</period>
	-->
	</address>
	<gender value="female"/>
	<birthDate value="1964-06-19"/> <!--eh: do we need this -->
	
	<qualification> 
		<extension url="http://hl7.org/fhir/uv/vhdir/StructureDefinition/practitioner-qualification">
			
			<!-- the license is currently active and valid in Washington, DC  eh: randomize this and make max of two -->
			<extension url="status">
				<valueCoding>
					<system value="http://hl7.org/fhir/resource-status"/>
					<code value="active"/>
					<display value="active"/>
				</valueCoding>
				
			</extension>
			<extension url="whereValid">
				<valueCodeableConcept>
					<coding>
						<system value="https://www.usps.com/"/>
						<code value="MA"/>
						<display value="Massachusetts"/>
						<userSelected value="true"/>
					</coding>
					<text value="Massachusetts"/>
				</valueCodeableConcept>
			</extension>
		</extension>
		<identifier>
			<!-- eh: tdo make max of two -->
			<extension url="http://hl7.org/fhir/uv/vhdir/StructureDefinition/identifier-status">
				<valueCode value="active"/> <!-- This record is active  eh: randomize this -->
			</extension>
			<use value="official"/>
			<type>
				<text value="Medical License number"/>
			</type>
			<system value="https://doh.ma.gov/bomed"/> <!-- This is made up for now ... will need to research  -->
			<value value="3810"/>
			<period>
				<start value="2018-06-19"/>  # ask how to create these...can randomize
				<end value="2021-06-19"/>
			</period>
			<assigner>
				<display value="Massachusetts Board of Medicine"/>
			</assigner>
		</identifier>
		<code>
			<coding>
				<system value="http://www.wpc.edi.com/taxonomy"/>
				<code value="152W00000X"/>
				<display value="Eye and Vision Service Providers/Optometrist"/>
				<userSelected value="true"/>
			</coding>
			<text value="Eye and Vision Service Providers/Optometrist"/>
		</code>
		<!--  eh: todo later ... discuss
		<period>
			<start value="2018-01-01"/>
			<end value="2020-01-01"/>
		</period>
		<issuer>
			<display value="http://qual_issuer"/>
		</issuer>
		-->
	</qualification><qualification> 
		<extension url="http://hl7.org/fhir/uv/vhdir/StructureDefinition/practitioner-qualification">
			
			<!-- the license is currently active and valid in Washington, DC  eh: randomize this and make max of two -->
			<extension url="status">
				<valueCoding>
					<system value="http://hl7.org/fhir/resource-status"/>
					<code value="active"/>
					<display value="active"/>
				</valueCoding>
				
			</extension>
			<extension url="whereValid">
				<valueCodeableConcept>
					<coding>
						<system value="https://www.usps.com/"/>
						<code value="MA"/>
						<display value="Massachusetts"/>
						<userSelected value="true"/>
					</coding>
					<text value="Massachusetts"/>
				</valueCodeableConcept>
			</extension>
		</extension>
		<identifier>
			<!-- eh: tdo make max of two -->
			<extension url="http://hl7.org/fhir/uv/vhdir/StructureDefinition/identifier-status">
				<valueCode value="active"/> <!-- This record is active  eh: randomize this -->
			</extension>
			<use value="official"/>
			<type>
				<text value="Medical License number"/>
			</type>
			<system value="https://doh.ma.gov/bomed"/> <!-- This is made up for now ... will need to research  -->
			<value value="3810"/>
			<period>
				<start value="2018-06-19"/>  # ask how to create these...can randomize
				<end value="2021-06-19"/>
			</period>
			<assigner>
				<display value="Massachusetts Board of Medicine"/>
			</assigner>
		</identifier>
		<code>
			<coding>
				<system value="http://www.wpc.edi.com/taxonomy"/>
				<code value="152WC0802X"/>
				<display value="Eye and Vision Service Providers/Optometrist"/>
				<userSelected value="true"/>
			</coding>
			<text value="Eye and Vision Service Providers/Optometrist"/>
		</code>
		<!--  eh: todo later ... discuss
		<period>
			<start value="2018-01-01"/>
			<end value="2020-01-01"/>
		</period>
		<issuer>
			<display value="http://qual_issuer"/>
		</issuer>
		-->
	</qualification> <!-- repeating qualification element -->
	<communication>
		<!-- eh: todo
			<extension url="http://hl7.org/fhir/uv/vhdir/StructureDefinition/communication-proficiency">
			<valueCodeableConcept>
				<coding>
					<code value="5"/>
					<display value="Native or bilingual proficiency"/>
					<userSelected value="true"/>
				</coding>
			</valueCodeableConcept>
		</extension> -->
		<coding>
			<system value="urn:ietf:bcp:47"/>
			<code value="en"/>
			<display value="English"/>
			<userSelected value="true"/>
		</coding> 
		<text value="English"/>
	</communication> <!-- repeating qualification element -->
	</Practitioner></resource>
 <request>  <!-- ?? 0..1 Additional execution information (transaction/batch/history) -->
  <method value="PUT"/>
  <url value="Practitioner/vhdir-practitioner-9993011228"/><!-- 1..1 URL for HTTP equivalent of this entry -->
 </request>
</entry>
<entry>
 <fullUrl value="http://test.fhir.org/r4/vhdir-practitioner-9991293834"/><!-- 0..1 URI for resource (Absolute URL server address or URI for UUID/OID) -->
 <resource><Practitioner xmlns="http://hl7.org/fhir">
	<!-- synthetic practitioner -->
	
	<id value="vhdir-practitioner-9991293834"/>
	<meta>
		<versionId value="1"/>
		<profile value="http://hl7.org/fhir/uv/vhdir/StructureDefinition/vhdir-practitioner"/>
	</meta>
	
<!--*******************************

 A reference to the practitioner's personal electronic endpoint (independent of their role with an organization)

url = 'type' Describes the practitioner's digital certificate. In this case, an identity certificate used for digitally signing, associated with the DirectTrust framework

************************************

	<extension url="http://hl7.org/fhir/uv/vhdir/StructureDefinition/endpoint-reference">	
		<valueReference>
			<reference value="Endpoint/vhdir-practitioner-9991293834"/>
			<display value="Practitioner 9991293834 Direct address"/>
		</valueReference>
	</extension>
	<extension url="http://hl7.org/fhir/uv/vhdir/StructureDefinition/digitalcertificate">
		<extension url="type">
			<valueCoding>
				<system value="http://hl7.org/fhir/uv/vhdir/CodeSystem/codesystem-digitalcertificate"/>
				<code value="ind"/>
				<display value="Individual"/>
			</valueCoding>
		</extension>
		<extension url="use">
			<valueCoding>
				<system value="http://hl7.org/fhir/uv/vhdir/CodeSystem/codesystem-digitalcertificate"/>
				<code value="signing"/>
				<display value="Signing"/>
			</valueCoding>
		</extension>
		<extension url="certificateStandard">
			<valueCoding>
				<system value="http://hl7.org/fhir/uv/vhdir/CodeSystem/codesystem-digitalcertificate"/>
				<code value="x.509v3"/>
				<display value="x.509v3"/>
			</valueCoding>
		</extension>
		<extension url="certificate">
			<valueString value=""/>
		</extension>
		<extension url="expirationDate">
			<valueDate value="1970-09-03"/>
		</extension>
		<extension url="trustFramework">
			<valueCodeableConcept>
				<coding>
					<system value="http://hl7.org/fhir/uv/vhdir/CodeSystem/codesystem-digitalcertificate"/>
					<code value="direct"/>
					<display value="DirectTrust"/>
					<userSelected value="true"/>
				</coding>
			</valueCodeableConcept>
		</extension>
	</extension>
-->

<!--********************	e.g. The practitioner provides culturally competent care for a local Native American tribe, the Piscataway People *********


	<extension url="http://hl7.org/fhir/uv/vhdir/StructureDefinition/accessibility">
		<valueCodeableConcept>
			<coding>
				<system value="http://hl7.org/fhir/uv/vhdir/CodeSystem/codesystem-accessibility"/>
				<code value="cultcomp"/>
				<display value="Cultural competence"/>
				<userSelected value="true"/>
			</coding>
			<text value="Coordinates care with tribal healers of the Piscataway People"/>
		</valueCodeableConcept>
	</extension>
	
-->
	<identifier>
		<!-- Practitioner's NPI number -->
		<extension url="http://hl7.org/fhir/uv/vhdir/StructureDefinition/identifier-status">
			<valueCode value="active"/><!-- active  eh: check for deactive codes or randomize this -->
		</extension>
		<use value="official"/>
		<type>
			<coding>
				<system value="http://terminology.hl7.org/CodeSystem/v2-0203"/>
				<code value="PRN"/>
				<display value="Provider number"/>
				<userSelected value="true"/>
			</coding>
			<text value="NPI"/>
		</type>
		<system value="http://hl7.org/fhir/sid/us-npi"/>
		<value value="9991293834"/>
		<period>  <!--  EH: add more values and stop values to this -->
			<start value="2005-07-16T09:00:00-05:00"/>
		</period>
		<assigner>
			<display value="CMS"/>
		</assigner>
	</identifier>
	
	<active value="active"/> 
	<!-- This record is active  eh: randomize this -->
	<name>

		<use value="official"/>
		<text value="Teodoro Carrera"/>
		<family value="Carrera"/>
		<given value="Teodoro"/>
		<suffix value="D.M.D."/>
	</name>
	<telecom>
		<!-- max of two-->
		<system value="phone"/>
		<value value="7815993380"/> <!-- eh: todo format phone -->
		<use value="work"/>
		<rank value="1"/>
	</telecom>
	<telecom>
		<!-- Practitioner's phone max of two-->
		<system value="phone"/>
		<value value="7815993385"/> <!-- eh: todo format phone -->
		<use value="work"/>
		<rank value="2"/>
	</telecom>
	<address>
		<!-- Home address is 1600 Pennsylvania Ave NW, Washington, DC 20006, USA at latitude 38.897957 and longitude -77.036560 -->
		<extension url="http://hl7.org/fhir/StructureDefinition/geolocation">
					<extension url="latitude">
							<valueDecimal value="42.488896"/>
					</extension>
					<extension url="longitude">
							<valueDecimal value="-70.964694"/>
					</extension>
			</extension>
		<use value="home"/>
		<type value="both"/> <!-- eh:  todo make this a choice -->
		<text value="793 LYNNFIELD ST, LYNN, MA 019041033"/>
		<line value="793 LYNNFIELD ST"/>
		<city value="LYNN"/>
		<state value="MA"/>
		<postalCode value="019041033"/>
		<country value="USA"/>
<!--  EH: todo add this in
		<period>
			<start value="1932-02-22"/> 
		</period>
	-->
	</address>
	<gender value="male"/>
	<birthDate value="1964-06-19"/> <!--eh: do we need this -->
	
	<qualification> 
		<extension url="http://hl7.org/fhir/uv/vhdir/StructureDefinition/practitioner-qualification">
			
			<!-- the license is currently active and valid in Washington, DC  eh: randomize this and make max of two -->
			<extension url="status">
				<valueCoding>
					<system value="http://hl7.org/fhir/resource-status"/>
					<code value="active"/>
					<display value="active"/>
				</valueCoding>
				
			</extension>
			<extension url="whereValid">
				<valueCodeableConcept>
					<coding>
						<system value="https://www.usps.com/"/>
						<code value="MA"/>
						<display value="Massachusetts"/>
						<userSelected value="true"/>
					</coding>
					<text value="Massachusetts"/>
				</valueCodeableConcept>
			</extension>
		</extension>
		<identifier>
			<!-- eh: tdo make max of two -->
			<extension url="http://hl7.org/fhir/uv/vhdir/StructureDefinition/identifier-status">
				<valueCode value="active"/> <!-- This record is active  eh: randomize this -->
			</extension>
			<use value="official"/>
			<type>
				<text value="Medical License number"/>
			</type>
			<system value="https://doh.ma.gov/bomed"/> <!-- This is made up for now ... will need to research  -->
			<value value="10226"/>
			<period>
				<start value="2018-06-19"/>  # ask how to create these...can randomize
				<end value="2021-06-19"/>
			</period>
			<assigner>
				<display value="Massachusetts Board of Medicine"/>
			</assigner>
		</identifier>
		<code>
			<coding>
				<system value="http://www.wpc.edi.com/taxonomy"/>
				<code value="122300000X"/>
				<display value="Taxonomy code display"/>
				<userSelected value="true"/>
			</coding>
			<text value="Taxonomy code display"/>
		</code>
		<!--  eh: todo later ... discuss
		<period>
			<start value="2018-01-01"/>
			<end value="2020-01-01"/>
		</period>
		<issuer>
			<display value="http://qual_issuer"/>
		</issuer>
		-->
	</qualification> <!-- repeating qualification element -->
	<communication>
			<!-- eh: todo
				<extension url="http://hl7.org/fhir/uv/vhdir/StructureDefinition/communication-proficiency">
				<valueCodeableConcept>
		<coding>
			<system value="urn:ietf:bcp:47"/>
			<code value="en"/>
			<display value="English"/>
			<userSelected value="true"/>
		</coding> 
				</valueCodeableConcept>
			</extension> -->
		<coding>
			<system value="urn:ietf:bcp:47"/>
			<code value="es"/>
			<display value="Spanish"/>
			<userSelected value="true"/>
		</coding> 
			<text value="English and Spanish"/>
		</communication>
		<communication>
			<!-- eh: todo
				<extension url="http://hl7.org/fhir/uv/vhdir/StructureDefinition/communication-proficiency">
				<valueCodeableConcept>
					<coding>
						<code value="5"/>
						<display value="Native or bilingual proficiency"/>
						<userSelected value="true"/>
					</coding>
				</valueCodeableConcept>
			</extension> -->
			<coding>
				<system value="urn:ietf:bcp:47"/>
				<code value="{communication_code}"/>
				<display value="{communication_display}"/>
				<userSelected value="true"/>
			</coding> 
			<text value="{communication_display}"/>
		</communication> <!-- repeating qualification element -->
	</Practitioner></resource>
 <request>  <!-- ?? 0..1 Additional execution information (transaction/batch/history) -->
  <method value="PUT"/>
  <url value="Practitioner/vhdir-practitioner-9991293834"/><!-- 1..1 URL for HTTP equivalent of this entry -->
 </request>
</entry>
<entry>
 <fullUrl value="http://test.fhir.org/r4/vhdir-practitioner-9995031354"/><!-- 0..1 URI for resource (Absolute URL server address or URI for UUID/OID) -->
 <resource><Practitioner xmlns="http://hl7.org/fhir">
	<!-- synthetic practitioner -->
	
	<id value="vhdir-practitioner-9995031354"/>
	<meta>
		<versionId value="1"/>
		<profile value="http://hl7.org/fhir/uv/vhdir/StructureDefinition/vhdir-practitioner"/>
	</meta>
	
<!--*******************************

 A reference to the practitioner's personal electronic endpoint (independent of their role with an organization)

url = 'type' Describes the practitioner's digital certificate. In this case, an identity certificate used for digitally signing, associated with the DirectTrust framework

************************************

	<extension url="http://hl7.org/fhir/uv/vhdir/StructureDefinition/endpoint-reference">	
		<valueReference>
			<reference value="Endpoint/vhdir-practitioner-9995031354"/>
			<display value="Practitioner 9995031354 Direct address"/>
		</valueReference>
	</extension>
	<extension url="http://hl7.org/fhir/uv/vhdir/StructureDefinition/digitalcertificate">
		<extension url="type">
			<valueCoding>
				<system value="http://hl7.org/fhir/uv/vhdir/CodeSystem/codesystem-digitalcertificate"/>
				<code value="ind"/>
				<display value="Individual"/>
			</valueCoding>
		</extension>
		<extension url="use">
			<valueCoding>
				<system value="http://hl7.org/fhir/uv/vhdir/CodeSystem/codesystem-digitalcertificate"/>
				<code value="signing"/>
				<display value="Signing"/>
			</valueCoding>
		</extension>
		<extension url="certificateStandard">
			<valueCoding>
				<system value="http://hl7.org/fhir/uv/vhdir/CodeSystem/codesystem-digitalcertificate"/>
				<code value="x.509v3"/>
				<display value="x.509v3"/>
			</valueCoding>
		</extension>
		<extension url="certificate">
			<valueString value=""/>
		</extension>
		<extension url="expirationDate">
			<valueDate value="1970-09-03"/>
		</extension>
		<extension url="trustFramework">
			<valueCodeableConcept>
				<coding>
					<system value="http://hl7.org/fhir/uv/vhdir/CodeSystem/codesystem-digitalcertificate"/>
					<code value="direct"/>
					<display value="DirectTrust"/>
					<userSelected value="true"/>
				</coding>
			</valueCodeableConcept>
		</extension>
	</extension>
-->

<!--********************	e.g. The practitioner provides culturally competent care for a local Native American tribe, the Piscataway People *********


	<extension url="http://hl7.org/fhir/uv/vhdir/StructureDefinition/accessibility">
		<valueCodeableConcept>
			<coding>
				<system value="http://hl7.org/fhir/uv/vhdir/CodeSystem/codesystem-accessibility"/>
				<code value="cultcomp"/>
				<display value="Cultural competence"/>
				<userSelected value="true"/>
			</coding>
			<text value="Coordinates care with tribal healers of the Piscataway People"/>
		</valueCodeableConcept>
	</extension>
	
-->
	<identifier>
		<!-- Practitioner's NPI number -->
		<extension url="http://hl7.org/fhir/uv/vhdir/StructureDefinition/identifier-status">
			<valueCode value="active"/><!-- active  eh: check for deactive codes or randomize this -->
		</extension>
		<use value="official"/>
		<type>
			<coding>
				<system value="http://terminology.hl7.org/CodeSystem/v2-0203"/>
				<code value="PRN"/>
				<display value="Provider number"/>
				<userSelected value="true"/>
			</coding>
			<text value="NPI"/>
		</type>
		<system value="http://hl7.org/fhir/sid/us-npi"/>
		<value value="9995031354"/>
		<period>  <!--  EH: add more values and stop values to this -->
			<start value="2005-07-16T09:00:00-05:00"/>
		</period>
		<assigner>
			<display value="CMS"/>
		</assigner>
	</identifier>
	
	<active value="active"/> 
	<!-- This record is active  eh: randomize this -->
	<name>

		<use value="official"/>
		<text value="Rich Rempel"/>
		<family value="Rempel"/>
		<given value="Rich"/>
		<suffix value="MD"/>
	</name>
	<telecom>
		<!-- max of two-->
		<system value="phone"/>
		<value value="4132845400"/> <!-- eh: todo format phone -->
		<use value="work"/>
		<rank value="1"/>
	</telecom>
	<telecom>
		<!-- Practitioner's phone max of two-->
		<system value="phone"/>
		<value value="4137945700"/> <!-- eh: todo format phone -->
		<use value="work"/>
		<rank value="2"/>
	</telecom>
	<address>
		<!-- Home address is 1600 Pennsylvania Ave NW, Washington, DC 20006, USA at latitude 38.897957 and longitude -77.036560 -->
		<extension url="http://hl7.org/fhir/StructureDefinition/geolocation">
					<extension url="latitude">
							<valueDecimal value="42.176131"/>
					</extension>
					<extension url="longitude">
							<valueDecimal value="-72.31457"/>
					</extension>
			</extension>
		<use value="home"/>
		<type value="both"/> <!-- eh:  todo make this a choice -->
		<text value="40 WRIGHT ST, PALMER, MA 010691138"/>
		<line value="40 WRIGHT ST"/>
		<city value="PALMER"/>
		<state value="MA"/>
		<postalCode value="010691138"/>
		<country value="USA"/>
<!--  EH: todo add this in
		<period>
			<start value="1932-02-22"/> 
		</period>
	-->
	</address>
	<gender value="male"/>
	<birthDate value="1964-06-19"/> <!--eh: do we need this -->
	
	<qualification> 
		<extension url="http://hl7.org/fhir/uv/vhdir/StructureDefinition/practitioner-qualification">
			
			<!-- the license is currently active and valid in Washington, DC  eh: randomize this and make max of two -->
			<extension url="status">
				<valueCoding>
					<system value="http://hl7.org/fhir/resource-status"/>
					<code value="active"/>
					<display value="active"/>
				</valueCoding>
				
			</extension>
			<extension url="whereValid">
				<valueCodeableConcept>
					<coding>
						<system value="https://www.usps.com/"/>
						<code value="MA"/>
						<display value="Massachusetts"/>
						<userSelected value="true"/>
					</coding>
					<text value="Massachusetts"/>
				</valueCodeableConcept>
			</extension>
		</extension>
		<identifier>
			<!-- eh: tdo make max of two -->
			<extension url="http://hl7.org/fhir/uv/vhdir/StructureDefinition/identifier-status">
				<valueCode value="active"/> <!-- This record is active  eh: randomize this -->
			</extension>
			<use value="official"/>
			<type>
				<text value="Medical License number"/>
			</type>
			<system value="https://doh.ma.gov/bomed"/> <!-- This is made up for now ... will need to research  -->
			<value value="261665"/>
			<period>
				<start value="2018-06-19"/>  # ask how to create these...can randomize
				<end value="2021-06-19"/>
			</period>
			<assigner>
				<display value="Massachusetts Board of Medicine"/>
			</assigner>
		</identifier>
		<code>
			<coding>
				<system value="http://www.wpc.edi.com/taxonomy"/>
				<code value="207RH0003X"/>
				<display value="Allopathic &amp; Osteopathic Physicians/Internal Medicine, Hematology &amp; Oncology"/>
				<userSelected value="true"/>
			</coding>
			<text value="Allopathic &amp; Osteopathic Physicians/Internal Medicine, Hematology &amp; Oncology"/>
		</code>
		<!--  eh: todo later ... discuss
		<period>
			<start value="2018-01-01"/>
			<end value="2020-01-01"/>
		</period>
		<issuer>
			<display value="http://qual_issuer"/>
		</issuer>
		-->
	</qualification><qualification> 
		<extension url="http://hl7.org/fhir/uv/vhdir/StructureDefinition/practitioner-qualification">
			
			<!-- the license is currently active and valid in Washington, DC  eh: randomize this and make max of two -->
			<extension url="status">
				<valueCoding>
					<system value="http://hl7.org/fhir/resource-status"/>
					<code value="active"/>
					<display value="active"/>
				</valueCoding>
				
			</extension>
			<extension url="whereValid">
				<valueCodeableConcept>
					<coding>
						<system value="https://www.usps.com/"/>
						<code value="MA"/>
						<display value="Massachusetts"/>
						<userSelected value="true"/>
					</coding>
					<text value="Massachusetts"/>
				</valueCodeableConcept>
			</extension>
		</extension>
		<identifier>
			<!-- eh: tdo make max of two -->
			<extension url="http://hl7.org/fhir/uv/vhdir/StructureDefinition/identifier-status">
				<valueCode value="active"/> <!-- This record is active  eh: randomize this -->
			</extension>
			<use value="official"/>
			<type>
				<text value="Medical License number"/>
			</type>
			<system value="https://doh.ma.gov/bomed"/> <!-- This is made up for now ... will need to research  -->
			<value value="261665"/>
			<period>
				<start value="2018-06-19"/>  # ask how to create these...can randomize
				<end value="2021-06-19"/>
			</period>
			<assigner>
				<display value="Massachusetts Board of Medicine"/>
			</assigner>
		</identifier>
		<code>
			<coding>
				<system value="http://www.wpc.edi.com/taxonomy"/>
				<code value="207RX0202X"/>
				<display value="Allopathic &amp; Osteopathic Physicians/Internal Medicine, Hematology &amp; Oncology"/>
				<userSelected value="true"/>
			</coding>
			<text value="Allopathic &amp; Osteopathic Physicians/Internal Medicine, Hematology &amp; Oncology"/>
		</code>
		<!--  eh: todo later ... discuss
		<period>
			<start value="2018-01-01"/>
			<end value="2020-01-01"/>
		</period>
		<issuer>
			<display value="http://qual_issuer"/>
		</issuer>
		-->
	</qualification> <!-- repeating qualification element -->
	<communication>
			<!-- eh: todo
				<extension url="http://hl7.org/fhir/uv/vhdir/StructureDefinition/communication-proficiency">
				<valueCodeableConcept>
		<coding>
			<system value="urn:ietf:bcp:47"/>
			<code value="en"/>
			<display value="English"/>
			<userSelected value="true"/>
		</coding> 
				</valueCodeableConcept>
			</extension> -->
		<coding>
			<system value="urn:ietf:bcp:47"/>
			<code value="es"/>
			<display value="Spanish"/>
			<userSelected value="true"/>
		</coding> 
			<text value="English and Spanish"/>
		</communication>
		<communication>
			<!-- eh: todo
				<extension url="http://hl7.org/fhir/uv/vhdir/StructureDefinition/communication-proficiency">
				<valueCodeableConcept>
					<coding>
						<code value="5"/>
						<display value="Native or bilingual proficiency"/>
						<userSelected value="true"/>
					</coding>
				</valueCodeableConcept>
			</extension> -->
			<coding>
				<system value="urn:ietf:bcp:47"/>
				<code value="{communication_code}"/>
				<display value="{communication_display}"/>
				<userSelected value="true"/>
			</coding> 
			<text value="{communication_display}"/>
		</communication> <!-- repeating qualification element -->
	</Practitioner></resource>
 <request>  <!-- ?? 0..1 Additional execution information (transaction/batch/history) -->
  <method value="PUT"/>
  <url value="Practitioner/vhdir-practitioner-9995031354"/><!-- 1..1 URL for HTTP equivalent of this entry -->
 </request>
</entry>
<entry>
 <fullUrl value="http://test.fhir.org/r4/vhdir-practitioner-9993011145"/><!-- 0..1 URI for resource (Absolute URL server address or URI for UUID/OID) -->
 <resource><Practitioner xmlns="http://hl7.org/fhir">
	<!-- synthetic practitioner -->
	
	<id value="vhdir-practitioner-9993011145"/>
	<meta>
		<versionId value="1"/>
		<profile value="http://hl7.org/fhir/uv/vhdir/StructureDefinition/vhdir-practitioner"/>
	</meta>
	
<!--*******************************

 A reference to the practitioner's personal electronic endpoint (independent of their role with an organization)

url = 'type' Describes the practitioner's digital certificate. In this case, an identity certificate used for digitally signing, associated with the DirectTrust framework

************************************

	<extension url="http://hl7.org/fhir/uv/vhdir/StructureDefinition/endpoint-reference">	
		<valueReference>
			<reference value="Endpoint/vhdir-practitioner-9993011145"/>
			<display value="Practitioner 9993011145 Direct address"/>
		</valueReference>
	</extension>
	<extension url="http://hl7.org/fhir/uv/vhdir/StructureDefinition/digitalcertificate">
		<extension url="type">
			<valueCoding>
				<system value="http://hl7.org/fhir/uv/vhdir/CodeSystem/codesystem-digitalcertificate"/>
				<code value="ind"/>
				<display value="Individual"/>
			</valueCoding>
		</extension>
		<extension url="use">
			<valueCoding>
				<system value="http://hl7.org/fhir/uv/vhdir/CodeSystem/codesystem-digitalcertificate"/>
				<code value="signing"/>
				<display value="Signing"/>
			</valueCoding>
		</extension>
		<extension url="certificateStandard">
			<valueCoding>
				<system value="http://hl7.org/fhir/uv/vhdir/CodeSystem/codesystem-digitalcertificate"/>
				<code value="x.509v3"/>
				<display value="x.509v3"/>
			</valueCoding>
		</extension>
		<extension url="certificate">
			<valueString value=""/>
		</extension>
		<extension url="expirationDate">
			<valueDate value="1970-09-03"/>
		</extension>
		<extension url="trustFramework">
			<valueCodeableConcept>
				<coding>
					<system value="http://hl7.org/fhir/uv/vhdir/CodeSystem/codesystem-digitalcertificate"/>
					<code value="direct"/>
					<display value="DirectTrust"/>
					<userSelected value="true"/>
				</coding>
			</valueCodeableConcept>
		</extension>
	</extension>
-->

<!--********************	e.g. The practitioner provides culturally competent care for a local Native American tribe, the Piscataway People *********


	<extension url="http://hl7.org/fhir/uv/vhdir/StructureDefinition/accessibility">
		<valueCodeableConcept>
			<coding>
				<system value="http://hl7.org/fhir/uv/vhdir/CodeSystem/codesystem-accessibility"/>
				<code value="cultcomp"/>
				<display value="Cultural competence"/>
				<userSelected value="true"/>
			</coding>
			<text value="Coordinates care with tribal healers of the Piscataway People"/>
		</valueCodeableConcept>
	</extension>
	
-->
	<identifier>
		<!-- Practitioner's NPI number -->
		<extension url="http://hl7.org/fhir/uv/vhdir/StructureDefinition/identifier-status">
			<valueCode value="active"/><!-- active  eh: check for deactive codes or randomize this -->
		</extension>
		<use value="official"/>
		<type>
			<coding>
				<system value="http://terminology.hl7.org/CodeSystem/v2-0203"/>
				<code value="PRN"/>
				<display value="Provider number"/>
				<userSelected value="true"/>
			</coding>
			<text value="NPI"/>
		</type>
		<system value="http://hl7.org/fhir/sid/us-npi"/>
		<value value="9993011145"/>
		<period>  <!--  EH: add more values and stop values to this -->
			<start value="2005-07-16T09:00:00-05:00"/>
		</period>
		<assigner>
			<display value="CMS"/>
		</assigner>
	</identifier>
	
	<active value="active"/> 
	<!-- This record is active  eh: randomize this -->
	<name>

		<use value="official"/>
		<text value="Shaun Barrows"/>
		<family value="Barrows"/>
		<given value="Shaun"/>
		<suffix value="MD"/>
	</name>
	<telecom>
		<!-- max of two-->
		<system value="phone"/>
		<value value="8607144161"/> <!-- eh: todo format phone -->
		<use value="work"/>
		<rank value="1"/>
	</telecom>
	<telecom>
		<!-- Practitioner's phone max of two-->
		<system value="phone"/>
		<value value="8607146581"/> <!-- eh: todo format phone -->
		<use value="work"/>
		<rank value="2"/>
	</telecom>
	<address>
		<!-- Home address is 1600 Pennsylvania Ave NW, Washington, DC 20006, USA at latitude 38.897957 and longitude -77.036560 -->
		<extension url="http://hl7.org/fhir/StructureDefinition/geolocation">
					<extension url="latitude">
							<valueDecimal value="41.774499"/>
					</extension>
					<extension url="longitude">
							<valueDecimal value="-72.699537"/>
					</extension>
			</extension>
		<use value="home"/>
		<type value="both"/> <!-- eh:  todo make this a choice -->
		<text value="114 WOODLAND ST, HARTFORD, CT 061051208"/>
		<line value="114 WOODLAND ST"/>
		<city value="HARTFORD"/>
		<state value="CT"/>
		<postalCode value="061051208"/>
		<country value="USA"/>
<!--  EH: todo add this in
		<period>
			<start value="1932-02-22"/> 
		</period>
	-->
	</address>
	<gender value="male"/>
	<birthDate value="1964-06-19"/> <!--eh: do we need this -->
	
	<qualification> 
		<extension url="http://hl7.org/fhir/uv/vhdir/StructureDefinition/practitioner-qualification">
			
			<!-- the license is currently active and valid in Washington, DC  eh: randomize this and make max of two -->
			<extension url="status">
				<valueCoding>
					<system value="http://hl7.org/fhir/resource-status"/>
					<code value="active"/>
					<display value="active"/>
				</valueCoding>
				
			</extension>
			<extension url="whereValid">
				<valueCodeableConcept>
					<coding>
						<system value="https://www.usps.com/"/>
						<code value="CT"/>
						<display value="Connecticut"/>
						<userSelected value="true"/>
					</coding>
					<text value="Connecticut"/>
				</valueCodeableConcept>
			</extension>
		</extension>
		<identifier>
			<!-- eh: tdo make max of two -->
			<extension url="http://hl7.org/fhir/uv/vhdir/StructureDefinition/identifier-status">
				<valueCode value="active"/> <!-- This record is active  eh: randomize this -->
			</extension>
			<use value="official"/>
			<type>
				<text value="Medical License number"/>
			</type>
			<system value="https://doh.ct.gov/bomed"/> <!-- This is made up for now ... will need to research  -->
			<value value="026125"/>
			<period>
				<start value="2018-06-19"/>  # ask how to create these...can randomize
				<end value="2021-06-19"/>
			</period>
			<assigner>
				<display value="Connecticut Board of Medicine"/>
			</assigner>
		</identifier>
		<code>
			<coding>
				<system value="http://www.wpc.edi.com/taxonomy"/>
				<code value="207RC0000X"/>
				<display value="Allopathic &amp; Osteopathic Physicians/Internal Medicine, Cardiovascular Disease"/>
				<userSelected value="true"/>
			</coding>
			<text value="Allopathic &amp; Osteopathic Physicians/Internal Medicine, Cardiovascular Disease"/>
		</code>
		<!--  eh: todo later ... discuss
		<period>
			<start value="2018-01-01"/>
			<end value="2020-01-01"/>
		</period>
		<issuer>
			<display value="http://qual_issuer"/>
		</issuer>
		-->
	</qualification> <!-- repeating qualification element -->
	<communication>
			<!-- eh: todo
				<extension url="http://hl7.org/fhir/uv/vhdir/StructureDefinition/communication-proficiency">
				<valueCodeableConcept>
		<coding>
			<system value="urn:ietf:bcp:47"/>
			<code value="en"/>
			<display value="English"/>
			<userSelected value="true"/>
		</coding> 
				</valueCodeableConcept>
			</extension> -->
		<coding>
			<system value="urn:ietf:bcp:47"/>
			<code value="es"/>
			<display value="Spanish"/>
			<userSelected value="true"/>
		</coding> 
			<text value="English and Spanish"/>
		</communication>
		<communication>
			<!-- eh: todo
				<extension url="http://hl7.org/fhir/uv/vhdir/StructureDefinition/communication-proficiency">
				<valueCodeableConcept>
					<coding>
						<code value="5"/>
						<display value="Native or bilingual proficiency"/>
						<userSelected value="true"/>
					</coding>
				</valueCodeableConcept>
			</extension> -->
			<coding>
				<system value="urn:ietf:bcp:47"/>
				<code value="{communication_code}"/>
				<display value="{communication_display}"/>
				<userSelected value="true"/>
			</coding> 
			<text value="{communication_display}"/>
		</communication> <!-- repeating qualification element -->
	</Practitioner></resource>
 <request>  <!-- ?? 0..1 Additional execution information (transaction/batch/history) -->
  <method value="PUT"/>
  <url value="Practitioner/vhdir-practitioner-9993011145"/><!-- 1..1 URL for HTTP equivalent of this entry -->
 </request>
</entry>
<entry>
 <fullUrl value="http://test.fhir.org/r4/vhdir-practitioner-9994920121"/><!-- 0..1 URI for resource (Absolute URL server address or URI for UUID/OID) -->
 <resource><Practitioner xmlns="http://hl7.org/fhir">
	<!-- synthetic practitioner -->
	
	<id value="vhdir-practitioner-9994920121"/>
	<meta>
		<versionId value="1"/>
		<profile value="http://hl7.org/fhir/uv/vhdir/StructureDefinition/vhdir-practitioner"/>
	</meta>
	
<!--*******************************

 A reference to the practitioner's personal electronic endpoint (independent of their role with an organization)

url = 'type' Describes the practitioner's digital certificate. In this case, an identity certificate used for digitally signing, associated with the DirectTrust framework

************************************

	<extension url="http://hl7.org/fhir/uv/vhdir/StructureDefinition/endpoint-reference">	
		<valueReference>
			<reference value="Endpoint/vhdir-practitioner-9994920121"/>
			<display value="Practitioner 9994920121 Direct address"/>
		</valueReference>
	</extension>
	<extension url="http://hl7.org/fhir/uv/vhdir/StructureDefinition/digitalcertificate">
		<extension url="type">
			<valueCoding>
				<system value="http://hl7.org/fhir/uv/vhdir/CodeSystem/codesystem-digitalcertificate"/>
				<code value="ind"/>
				<display value="Individual"/>
			</valueCoding>
		</extension>
		<extension url="use">
			<valueCoding>
				<system value="http://hl7.org/fhir/uv/vhdir/CodeSystem/codesystem-digitalcertificate"/>
				<code value="signing"/>
				<display value="Signing"/>
			</valueCoding>
		</extension>
		<extension url="certificateStandard">
			<valueCoding>
				<system value="http://hl7.org/fhir/uv/vhdir/CodeSystem/codesystem-digitalcertificate"/>
				<code value="x.509v3"/>
				<display value="x.509v3"/>
			</valueCoding>
		</extension>
		<extension url="certificate">
			<valueString value=""/>
		</extension>
		<extension url="expirationDate">
			<valueDate value="1970-09-03"/>
		</extension>
		<extension url="trustFramework">
			<valueCodeableConcept>
				<coding>
					<system value="http://hl7.org/fhir/uv/vhdir/CodeSystem/codesystem-digitalcertificate"/>
					<code value="direct"/>
					<display value="DirectTrust"/>
					<userSelected value="true"/>
				</coding>
			</valueCodeableConcept>
		</extension>
	</extension>
-->

<!--********************	e.g. The practitioner provides culturally competent care for a local Native American tribe, the Piscataway People *********


	<extension url="http://hl7.org/fhir/uv/vhdir/StructureDefinition/accessibility">
		<valueCodeableConcept>
			<coding>
				<system value="http://hl7.org/fhir/uv/vhdir/CodeSystem/codesystem-accessibility"/>
				<code value="cultcomp"/>
				<display value="Cultural competence"/>
				<userSelected value="true"/>
			</coding>
			<text value="Coordinates care with tribal healers of the Piscataway People"/>
		</valueCodeableConcept>
	</extension>
	
-->
	<identifier>
		<!-- Practitioner's NPI number -->
		<extension url="http://hl7.org/fhir/uv/vhdir/StructureDefinition/identifier-status">
			<valueCode value="active"/><!-- active  eh: check for deactive codes or randomize this -->
		</extension>
		<use value="official"/>
		<type>
			<coding>
				<system value="http://terminology.hl7.org/CodeSystem/v2-0203"/>
				<code value="PRN"/>
				<display value="Provider number"/>
				<userSelected value="true"/>
			</coding>
			<text value="NPI"/>
		</type>
		<system value="http://hl7.org/fhir/sid/us-npi"/>
		<value value="9994920121"/>
		<period>  <!--  EH: add more values and stop values to this -->
			<start value="2005-07-16T09:00:00-05:00"/>
		</period>
		<assigner>
			<display value="CMS"/>
		</assigner>
	</identifier>
	
	<active value="active"/> 
	<!-- This record is active  eh: randomize this -->
	<name>

		<use value="official"/>
		<text value="Mack Ferry"/>
		<family value="Ferry"/>
		<given value="Mack"/>
		<suffix value="D.P.M."/>
	</name>
	<telecom>
		<!-- max of two-->
		<system value="phone"/>
		<value value="5086467720"/> <!-- eh: todo format phone -->
		<use value="work"/>
		<rank value="1"/>
	</telecom>
	<telecom>
		<!-- Practitioner's phone max of two-->
		<system value="phone"/>
		<value value="5086467721"/> <!-- eh: todo format phone -->
		<use value="work"/>
		<rank value="2"/>
	</telecom>
	<address>
		<!-- Home address is 1600 Pennsylvania Ave NW, Washington, DC 20006, USA at latitude 38.897957 and longitude -77.036560 -->
		<extension url="http://hl7.org/fhir/StructureDefinition/geolocation">
					<extension url="latitude">
							<valueDecimal value="41.678895"/>
					</extension>
					<extension url="longitude">
							<valueDecimal value="-71.153648"/>
					</extension>
			</extension>
		<use value="home"/>
		<type value="both"/> <!-- eh:  todo make this a choice -->
		<text value="289 PLEASANT ST STE 202, FALL RIVER, MA 027213005"/>
		<line value="289 PLEASANT ST STE 202"/>
		<city value="FALL RIVER"/>
		<state value="MA"/>
		<postalCode value="027213005"/>
		<country value="USA"/>
<!--  EH: todo add this in
		<period>
			<start value="1932-02-22"/> 
		</period>
	-->
	</address>
	<gender value="male"/>
	<birthDate value="1964-06-19"/> <!--eh: do we need this -->
	
	<qualification> 
		<extension url="http://hl7.org/fhir/uv/vhdir/StructureDefinition/practitioner-qualification">
			
			<!-- the license is currently active and valid in Washington, DC  eh: randomize this and make max of two -->
			<extension url="status">
				<valueCoding>
					<system value="http://hl7.org/fhir/resource-status"/>
					<code value="active"/>
					<display value="active"/>
				</valueCoding>
				
			</extension>
			<extension url="whereValid">
				<valueCodeableConcept>
					<coding>
						<system value="https://www.usps.com/"/>
						<code value="MA"/>
						<display value="Massachusetts"/>
						<userSelected value="true"/>
					</coding>
					<text value="Massachusetts"/>
				</valueCodeableConcept>
			</extension>
		</extension>
		<identifier>
			<!-- eh: tdo make max of two -->
			<extension url="http://hl7.org/fhir/uv/vhdir/StructureDefinition/identifier-status">
				<valueCode value="active"/> <!-- This record is active  eh: randomize this -->
			</extension>
			<use value="official"/>
			<type>
				<text value="Medical License number"/>
			</type>
			<system value="https://doh.ma.gov/bomed"/> <!-- This is made up for now ... will need to research  -->
			<value value="1924"/>
			<period>
				<start value="2018-06-19"/>  # ask how to create these...can randomize
				<end value="2021-06-19"/>
			</period>
			<assigner>
				<display value="Massachusetts Board of Medicine"/>
			</assigner>
		</identifier>
		<code>
			<coding>
				<system value="http://www.wpc.edi.com/taxonomy"/>
				<code value="213ES0103X"/>
				<display value="Podiatric Medicine &amp; Surgery Service Providers/Podiatrist, Foot &amp; Ankle Surgery"/>
				<userSelected value="true"/>
			</coding>
			<text value="Podiatric Medicine &amp; Surgery Service Providers/Podiatrist, Foot &amp; Ankle Surgery"/>
		</code>
		<!--  eh: todo later ... discuss
		<period>
			<start value="2018-01-01"/>
			<end value="2020-01-01"/>
		</period>
		<issuer>
			<display value="http://qual_issuer"/>
		</issuer>
		-->
	</qualification><qualification> 
		<extension url="http://hl7.org/fhir/uv/vhdir/StructureDefinition/practitioner-qualification">
			
			<!-- the license is currently active and valid in Washington, DC  eh: randomize this and make max of two -->
			<extension url="status">
				<valueCoding>
					<system value="http://hl7.org/fhir/resource-status"/>
					<code value="active"/>
					<display value="active"/>
				</valueCoding>
				
			</extension>
			<extension url="whereValid">
				<valueCodeableConcept>
					<coding>
						<system value="https://www.usps.com/"/>
						<code value="RI"/>
						<display value="Rhode Island"/>
						<userSelected value="true"/>
					</coding>
					<text value="Rhode Island"/>
				</valueCodeableConcept>
			</extension>
		</extension>
		<identifier>
			<!-- eh: tdo make max of two -->
			<extension url="http://hl7.org/fhir/uv/vhdir/StructureDefinition/identifier-status">
				<valueCode value="active"/> <!-- This record is active  eh: randomize this -->
			</extension>
			<use value="official"/>
			<type>
				<text value="Medical License number"/>
			</type>
			<system value="https://doh.ma.gov/bomed"/> <!-- This is made up for now ... will need to research  -->
			<value value="RIDPM265"/>
			<period>
				<start value="2018-06-19"/>  # ask how to create these...can randomize
				<end value="2021-06-19"/>
			</period>
			<assigner>
				<display value="Rhode Island Board of Medicine"/>
			</assigner>
		</identifier>
		<code>
			<coding>
				<system value="http://www.wpc.edi.com/taxonomy"/>
				<code value="213ES0103X"/>
				<display value="Podiatric Medicine &amp; Surgery Service Providers/Podiatrist, Foot &amp; Ankle Surgery"/>
				<userSelected value="true"/>
			</coding>
			<text value="Podiatric Medicine &amp; Surgery Service Providers/Podiatrist, Foot &amp; Ankle Surgery"/>
		</code>
		<!--  eh: todo later ... discuss
		<period>
			<start value="2018-01-01"/>
			<end value="2020-01-01"/>
		</period>
		<issuer>
			<display value="http://qual_issuer"/>
		</issuer>
		-->
	</qualification> <!-- repeating qualification element -->
	<communication>
		<!-- eh: todo
			<extension url="http://hl7.org/fhir/uv/vhdir/StructureDefinition/communication-proficiency">
			<valueCodeableConcept>
				<coding>
					<code value="5"/>
					<display value="Native or bilingual proficiency"/>
					<userSelected value="true"/>
				</coding>
			</valueCodeableConcept>
		</extension> -->
		<coding>
			<system value="urn:ietf:bcp:47"/>
			<code value="en"/>
			<display value="English"/>
			<userSelected value="true"/>
		</coding> 
		<text value="English"/>
	</communication> <!-- repeating qualification element -->
	</Practitioner></resource>
 <request>  <!-- ?? 0..1 Additional execution information (transaction/batch/history) -->
  <method value="PUT"/>
  <url value="Practitioner/vhdir-practitioner-9994920121"/><!-- 1..1 URL for HTTP equivalent of this entry -->
 </request>
</entry>
<entry>
 <fullUrl value="http://test.fhir.org/r4/vhdir-practitioner-9992304172"/><!-- 0..1 URI for resource (Absolute URL server address or URI for UUID/OID) -->
 <resource><Practitioner xmlns="http://hl7.org/fhir">
	<!-- synthetic practitioner -->
	
	<id value="vhdir-practitioner-9992304172"/>
	<meta>
		<versionId value="1"/>
		<profile value="http://hl7.org/fhir/uv/vhdir/StructureDefinition/vhdir-practitioner"/>
	</meta>
	
<!--*******************************

 A reference to the practitioner's personal electronic endpoint (independent of their role with an organization)

url = 'type' Describes the practitioner's digital certificate. In this case, an identity certificate used for digitally signing, associated with the DirectTrust framework

************************************

	<extension url="http://hl7.org/fhir/uv/vhdir/StructureDefinition/endpoint-reference">	
		<valueReference>
			<reference value="Endpoint/vhdir-practitioner-9992304172"/>
			<display value="Practitioner 9992304172 Direct address"/>
		</valueReference>
	</extension>
	<extension url="http://hl7.org/fhir/uv/vhdir/StructureDefinition/digitalcertificate">
		<extension url="type">
			<valueCoding>
				<system value="http://hl7.org/fhir/uv/vhdir/CodeSystem/codesystem-digitalcertificate"/>
				<code value="ind"/>
				<display value="Individual"/>
			</valueCoding>
		</extension>
		<extension url="use">
			<valueCoding>
				<system value="http://hl7.org/fhir/uv/vhdir/CodeSystem/codesystem-digitalcertificate"/>
				<code value="signing"/>
				<display value="Signing"/>
			</valueCoding>
		</extension>
		<extension url="certificateStandard">
			<valueCoding>
				<system value="http://hl7.org/fhir/uv/vhdir/CodeSystem/codesystem-digitalcertificate"/>
				<code value="x.509v3"/>
				<display value="x.509v3"/>
			</valueCoding>
		</extension>
		<extension url="certificate">
			<valueString value=""/>
		</extension>
		<extension url="expirationDate">
			<valueDate value="1970-09-03"/>
		</extension>
		<extension url="trustFramework">
			<valueCodeableConcept>
				<coding>
					<system value="http://hl7.org/fhir/uv/vhdir/CodeSystem/codesystem-digitalcertificate"/>
					<code value="direct"/>
					<display value="DirectTrust"/>
					<userSelected value="true"/>
				</coding>
			</valueCodeableConcept>
		</extension>
	</extension>
-->

<!--********************	e.g. The practitioner provides culturally competent care for a local Native American tribe, the Piscataway People *********


	<extension url="http://hl7.org/fhir/uv/vhdir/StructureDefinition/accessibility">
		<valueCodeableConcept>
			<coding>
				<system value="http://hl7.org/fhir/uv/vhdir/CodeSystem/codesystem-accessibility"/>
				<code value="cultcomp"/>
				<display value="Cultural competence"/>
				<userSelected value="true"/>
			</coding>
			<text value="Coordinates care with tribal healers of the Piscataway People"/>
		</valueCodeableConcept>
	</extension>
	
-->
	<identifier>
		<!-- Practitioner's NPI number -->
		<extension url="http://hl7.org/fhir/uv/vhdir/StructureDefinition/identifier-status">
			<valueCode value="active"/><!-- active  eh: check for deactive codes or randomize this -->
		</extension>
		<use value="official"/>
		<type>
			<coding>
				<system value="http://terminology.hl7.org/CodeSystem/v2-0203"/>
				<code value="PRN"/>
				<display value="Provider number"/>
				<userSelected value="true"/>
			</coding>
			<text value="NPI"/>
		</type>
		<system value="http://hl7.org/fhir/sid/us-npi"/>
		<value value="9992304172"/>
		<period>  <!--  EH: add more values and stop values to this -->
			<start value="2005-07-16T09:00:00-05:00"/>
		</period>
		<assigner>
			<display value="CMS"/>
		</assigner>
	</identifier>
	
	<active value="active"/> 
	<!-- This record is active  eh: randomize this -->
	<name>

		<use value="official"/>
		<text value="Stephen Boehm"/>
		<family value="Boehm"/>
		<given value="Stephen"/>
		<suffix value="SLP-CCC"/>
	</name>
	<telecom>
		<!-- max of two-->
		<system value="phone"/>
		<value value="5085417890"/> <!-- eh: todo format phone -->
		<use value="work"/>
		<rank value="1"/>
	</telecom>
	<telecom>
		<!-- Practitioner's phone max of two-->
		<system value="phone"/>
		<value value="6172759023"/> <!-- eh: todo format phone -->
		<use value="work"/>
		<rank value="2"/>
	</telecom>
	<address>
		<!-- Home address is 1600 Pennsylvania Ave NW, Washington, DC 20006, USA at latitude 38.897957 and longitude -77.036560 -->
		<extension url="http://hl7.org/fhir/StructureDefinition/geolocation">
					<extension url="latitude">
							<valueDecimal value="42.08868"/>
					</extension>
					<extension url="longitude">
							<valueDecimal value="-71.404814"/>
					</extension>
			</extension>
		<use value="home"/>
		<type value="both"/> <!-- eh:  todo make this a choice -->
		<text value="224 OAK ST, FRANKLIN, MA 020381875"/>
		<line value="224 OAK ST"/>
		<city value="FRANKLIN"/>
		<state value="MA"/>
		<postalCode value="020381875"/>
		<country value="USA"/>
<!--  EH: todo add this in
		<period>
			<start value="1932-02-22"/> 
		</period>
	-->
	</address>
	<gender value="male"/>
	<birthDate value="1964-06-19"/> <!--eh: do we need this -->
	
	<qualification> 
		<extension url="http://hl7.org/fhir/uv/vhdir/StructureDefinition/practitioner-qualification">
			
			<!-- the license is currently active and valid in Washington, DC  eh: randomize this and make max of two -->
			<extension url="status">
				<valueCoding>
					<system value="http://hl7.org/fhir/resource-status"/>
					<code value="active"/>
					<display value="active"/>
				</valueCoding>
				
			</extension>
			<extension url="whereValid">
				<valueCodeableConcept>
					<coding>
						<system value="https://www.usps.com/"/>
						<code value="MA"/>
						<display value="Massachusetts"/>
						<userSelected value="true"/>
					</coding>
					<text value="Massachusetts"/>
				</valueCodeableConcept>
			</extension>
		</extension>
		<identifier>
			<!-- eh: tdo make max of two -->
			<extension url="http://hl7.org/fhir/uv/vhdir/StructureDefinition/identifier-status">
				<valueCode value="active"/> <!-- This record is active  eh: randomize this -->
			</extension>
			<use value="official"/>
			<type>
				<text value="Medical License number"/>
			</type>
			<system value="https://doh.ma.gov/bomed"/> <!-- This is made up for now ... will need to research  -->
			<value value="6520"/>
			<period>
				<start value="2018-06-19"/>  # ask how to create these...can randomize
				<end value="2021-06-19"/>
			</period>
			<assigner>
				<display value="Massachusetts Board of Medicine"/>
			</assigner>
		</identifier>
		<code>
			<coding>
				<system value="http://www.wpc.edi.com/taxonomy"/>
				<code value="235Z00000X"/>
				<display value="Speech, Language and Hearing Service Providers   "/>
				<userSelected value="true"/>
			</coding>
			<text value="Speech, Language and Hearing Service Providers   "/>
		</code>
		<!--  eh: todo later ... discuss
		<period>
			<start value="2018-01-01"/>
			<end value="2020-01-01"/>
		</period>
		<issuer>
			<display value="http://qual_issuer"/>
		</issuer>
		-->
	</qualification> <!-- repeating qualification element -->
	<communication>
		<!-- eh: todo
			<extension url="http://hl7.org/fhir/uv/vhdir/StructureDefinition/communication-proficiency">
			<valueCodeableConcept>
				<coding>
					<code value="5"/>
					<display value="Native or bilingual proficiency"/>
					<userSelected value="true"/>
				</coding>
			</valueCodeableConcept>
		</extension> -->
		<coding>
			<system value="urn:ietf:bcp:47"/>
			<code value="en"/>
			<display value="English"/>
			<userSelected value="true"/>
		</coding> 
		<text value="English"/>
	</communication> <!-- repeating qualification element -->
	</Practitioner></resource>
 <request>  <!-- ?? 0..1 Additional execution information (transaction/batch/history) -->
  <method value="PUT"/>
  <url value="Practitioner/vhdir-practitioner-9992304172"/><!-- 1..1 URL for HTTP equivalent of this entry -->
 </request>
</entry>
<entry>
 <fullUrl value="http://test.fhir.org/r4/vhdir-practitioner-9996243557"/><!-- 0..1 URI for resource (Absolute URL server address or URI for UUID/OID) -->
 <resource><Practitioner xmlns="http://hl7.org/fhir">
	<!-- synthetic practitioner -->
	
	<id value="vhdir-practitioner-9996243557"/>
	<meta>
		<versionId value="1"/>
		<profile value="http://hl7.org/fhir/uv/vhdir/StructureDefinition/vhdir-practitioner"/>
	</meta>
	
<!--*******************************

 A reference to the practitioner's personal electronic endpoint (independent of their role with an organization)

url = 'type' Describes the practitioner's digital certificate. In this case, an identity certificate used for digitally signing, associated with the DirectTrust framework

************************************

	<extension url="http://hl7.org/fhir/uv/vhdir/StructureDefinition/endpoint-reference">	
		<valueReference>
			<reference value="Endpoint/vhdir-practitioner-9996243557"/>
			<display value="Practitioner 9996243557 Direct address"/>
		</valueReference>
	</extension>
	<extension url="http://hl7.org/fhir/uv/vhdir/StructureDefinition/digitalcertificate">
		<extension url="type">
			<valueCoding>
				<system value="http://hl7.org/fhir/uv/vhdir/CodeSystem/codesystem-digitalcertificate"/>
				<code value="ind"/>
				<display value="Individual"/>
			</valueCoding>
		</extension>
		<extension url="use">
			<valueCoding>
				<system value="http://hl7.org/fhir/uv/vhdir/CodeSystem/codesystem-digitalcertificate"/>
				<code value="signing"/>
				<display value="Signing"/>
			</valueCoding>
		</extension>
		<extension url="certificateStandard">
			<valueCoding>
				<system value="http://hl7.org/fhir/uv/vhdir/CodeSystem/codesystem-digitalcertificate"/>
				<code value="x.509v3"/>
				<display value="x.509v3"/>
			</valueCoding>
		</extension>
		<extension url="certificate">
			<valueString value=""/>
		</extension>
		<extension url="expirationDate">
			<valueDate value="1970-09-03"/>
		</extension>
		<extension url="trustFramework">
			<valueCodeableConcept>
				<coding>
					<system value="http://hl7.org/fhir/uv/vhdir/CodeSystem/codesystem-digitalcertificate"/>
					<code value="direct"/>
					<display value="DirectTrust"/>
					<userSelected value="true"/>
				</coding>
			</valueCodeableConcept>
		</extension>
	</extension>
-->

<!--********************	e.g. The practitioner provides culturally competent care for a local Native American tribe, the Piscataway People *********


	<extension url="http://hl7.org/fhir/uv/vhdir/StructureDefinition/accessibility">
		<valueCodeableConcept>
			<coding>
				<system value="http://hl7.org/fhir/uv/vhdir/CodeSystem/codesystem-accessibility"/>
				<code value="cultcomp"/>
				<display value="Cultural competence"/>
				<userSelected value="true"/>
			</coding>
			<text value="Coordinates care with tribal healers of the Piscataway People"/>
		</valueCodeableConcept>
	</extension>
	
-->
	<identifier>
		<!-- Practitioner's NPI number -->
		<extension url="http://hl7.org/fhir/uv/vhdir/StructureDefinition/identifier-status">
			<valueCode value="active"/><!-- active  eh: check for deactive codes or randomize this -->
		</extension>
		<use value="official"/>
		<type>
			<coding>
				<system value="http://terminology.hl7.org/CodeSystem/v2-0203"/>
				<code value="PRN"/>
				<display value="Provider number"/>
				<userSelected value="true"/>
			</coding>
			<text value="NPI"/>
		</type>
		<system value="http://hl7.org/fhir/sid/us-npi"/>
		<value value="9996243557"/>
		<period>  <!--  EH: add more values and stop values to this -->
			<start value="2005-07-16T09:00:00-05:00"/>
		</period>
		<assigner>
			<display value="CMS"/>
		</assigner>
	</identifier>
	
	<active value="active"/> 
	<!-- This record is active  eh: randomize this -->
	<name>

		<use value="official"/>
		<text value="Diego Pagan"/>
		<family value="Pagan"/>
		<given value="Diego"/>
		<suffix value="MD"/>
	</name>
	<telecom>
		<!-- max of two-->
		<system value="phone"/>
		<value value="5089937344"/> <!-- eh: todo format phone -->
		<use value="work"/>
		<rank value="1"/>
	</telecom>
	<telecom>
		<!-- Practitioner's phone max of two-->
		<system value="phone"/>
		<value value="5089902072"/> <!-- eh: todo format phone -->
		<use value="work"/>
		<rank value="2"/>
	</telecom>
	<address>
		<!-- Home address is 1600 Pennsylvania Ave NW, Washington, DC 20006, USA at latitude 38.897957 and longitude -77.036560 -->
		<extension url="http://hl7.org/fhir/StructureDefinition/geolocation">
					<extension url="latitude">
							<valueDecimal value="41.639261"/>
					</extension>
					<extension url="longitude">
							<valueDecimal value="-71.007578"/>
					</extension>
			</extension>
		<use value="home"/>
		<type value="both"/> <!-- eh:  todo make this a choice -->
		<text value="49 STATE RD, NORTH DARTMOUTH, MA 027473322"/>
		<line value="49 STATE RD"/>
		<city value="NORTH DARTMOUTH"/>
		<state value="MA"/>
		<postalCode value="027473322"/>
		<country value="USA"/>
<!--  EH: todo add this in
		<period>
			<start value="1932-02-22"/> 
		</period>
	-->
	</address>
	<gender value="male"/>
	<birthDate value="1964-06-19"/> <!--eh: do we need this -->
	
	<qualification> 
		<extension url="http://hl7.org/fhir/uv/vhdir/StructureDefinition/practitioner-qualification">
			
			<!-- the license is currently active and valid in Washington, DC  eh: randomize this and make max of two -->
			<extension url="status">
				<valueCoding>
					<system value="http://hl7.org/fhir/resource-status"/>
					<code value="active"/>
					<display value="active"/>
				</valueCoding>
				
			</extension>
			<extension url="whereValid">
				<valueCodeableConcept>
					<coding>
						<system value="https://www.usps.com/"/>
						<code value="MA"/>
						<display value="Massachusetts"/>
						<userSelected value="true"/>
					</coding>
					<text value="Massachusetts"/>
				</valueCodeableConcept>
			</extension>
		</extension>
		<identifier>
			<!-- eh: tdo make max of two -->
			<extension url="http://hl7.org/fhir/uv/vhdir/StructureDefinition/identifier-status">
				<valueCode value="active"/> <!-- This record is active  eh: randomize this -->
			</extension>
			<use value="official"/>
			<type>
				<text value="Medical License number"/>
			</type>
			<system value="https://doh.ma.gov/bomed"/> <!-- This is made up for now ... will need to research  -->
			<value value="47516"/>
			<period>
				<start value="2018-06-19"/>  # ask how to create these...can randomize
				<end value="2021-06-19"/>
			</period>
			<assigner>
				<display value="Massachusetts Board of Medicine"/>
			</assigner>
		</identifier>
		<code>
			<coding>
				<system value="http://www.wpc.edi.com/taxonomy"/>
				<code value="208800000X"/>
				<display value="Taxonomy code display"/>
				<userSelected value="true"/>
			</coding>
			<text value="Taxonomy code display"/>
		</code>
		<!--  eh: todo later ... discuss
		<period>
			<start value="2018-01-01"/>
			<end value="2020-01-01"/>
		</period>
		<issuer>
			<display value="http://qual_issuer"/>
		</issuer>
		-->
	</qualification> <!-- repeating qualification element -->
	<communication>
		<!-- eh: todo
			<extension url="http://hl7.org/fhir/uv/vhdir/StructureDefinition/communication-proficiency">
			<valueCodeableConcept>
				<coding>
					<code value="5"/>
					<display value="Native or bilingual proficiency"/>
					<userSelected value="true"/>
				</coding>
			</valueCodeableConcept>
		</extension> -->
		<coding>
			<system value="urn:ietf:bcp:47"/>
			<code value="en"/>
			<display value="English"/>
			<userSelected value="true"/>
		</coding> 
		<text value="English"/>
	</communication> <!-- repeating qualification element -->
	</Practitioner></resource>
 <request>  <!-- ?? 0..1 Additional execution information (transaction/batch/history) -->
  <method value="PUT"/>
  <url value="Practitioner/vhdir-practitioner-9996243557"/><!-- 1..1 URL for HTTP equivalent of this entry -->
 </request>
</entry>
<entry>
 <fullUrl value="http://test.fhir.org/r4/vhdir-practitioner-9991990013"/><!-- 0..1 URI for resource (Absolute URL server address or URI for UUID/OID) -->
 <resource><Practitioner xmlns="http://hl7.org/fhir">
	<!-- synthetic practitioner -->
	
	<id value="vhdir-practitioner-9991990013"/>
	<meta>
		<versionId value="1"/>
		<profile value="http://hl7.org/fhir/uv/vhdir/StructureDefinition/vhdir-practitioner"/>
	</meta>
	
<!--*******************************

 A reference to the practitioner's personal electronic endpoint (independent of their role with an organization)

url = 'type' Describes the practitioner's digital certificate. In this case, an identity certificate used for digitally signing, associated with the DirectTrust framework

************************************

	<extension url="http://hl7.org/fhir/uv/vhdir/StructureDefinition/endpoint-reference">	
		<valueReference>
			<reference value="Endpoint/vhdir-practitioner-9991990013"/>
			<display value="Practitioner 9991990013 Direct address"/>
		</valueReference>
	</extension>
	<extension url="http://hl7.org/fhir/uv/vhdir/StructureDefinition/digitalcertificate">
		<extension url="type">
			<valueCoding>
				<system value="http://hl7.org/fhir/uv/vhdir/CodeSystem/codesystem-digitalcertificate"/>
				<code value="ind"/>
				<display value="Individual"/>
			</valueCoding>
		</extension>
		<extension url="use">
			<valueCoding>
				<system value="http://hl7.org/fhir/uv/vhdir/CodeSystem/codesystem-digitalcertificate"/>
				<code value="signing"/>
				<display value="Signing"/>
			</valueCoding>
		</extension>
		<extension url="certificateStandard">
			<valueCoding>
				<system value="http://hl7.org/fhir/uv/vhdir/CodeSystem/codesystem-digitalcertificate"/>
				<code value="x.509v3"/>
				<display value="x.509v3"/>
			</valueCoding>
		</extension>
		<extension url="certificate">
			<valueString value=""/>
		</extension>
		<extension url="expirationDate">
			<valueDate value="1970-09-03"/>
		</extension>
		<extension url="trustFramework">
			<valueCodeableConcept>
				<coding>
					<system value="http://hl7.org/fhir/uv/vhdir/CodeSystem/codesystem-digitalcertificate"/>
					<code value="direct"/>
					<display value="DirectTrust"/>
					<userSelected value="true"/>
				</coding>
			</valueCodeableConcept>
		</extension>
	</extension>
-->

<!--********************	e.g. The practitioner provides culturally competent care for a local Native American tribe, the Piscataway People *********


	<extension url="http://hl7.org/fhir/uv/vhdir/StructureDefinition/accessibility">
		<valueCodeableConcept>
			<coding>
				<system value="http://hl7.org/fhir/uv/vhdir/CodeSystem/codesystem-accessibility"/>
				<code value="cultcomp"/>
				<display value="Cultural competence"/>
				<userSelected value="true"/>
			</coding>
			<text value="Coordinates care with tribal healers of the Piscataway People"/>
		</valueCodeableConcept>
	</extension>
	
-->
	<identifier>
		<!-- Practitioner's NPI number -->
		<extension url="http://hl7.org/fhir/uv/vhdir/StructureDefinition/identifier-status">
			<valueCode value="active"/><!-- active  eh: check for deactive codes or randomize this -->
		</extension>
		<use value="official"/>
		<type>
			<coding>
				<system value="http://terminology.hl7.org/CodeSystem/v2-0203"/>
				<code value="PRN"/>
				<display value="Provider number"/>
				<userSelected value="true"/>
			</coding>
			<text value="NPI"/>
		</type>
		<system value="http://hl7.org/fhir/sid/us-npi"/>
		<value value="9991990013"/>
		<period>  <!--  EH: add more values and stop values to this -->
			<start value="2005-07-16T09:00:00-05:00"/>
		</period>
		<assigner>
			<display value="CMS"/>
		</assigner>
	</identifier>
	
	<active value="active"/> 
	<!-- This record is active  eh: randomize this -->
	<name>

		<use value="official"/>
		<text value="Gail Morissette"/>
		<family value="Morissette"/>
		<given value="Gail"/>
		<suffix value="MD, RPH"/>
	</name>
	<telecom>
		<!-- max of two-->
		<system value="phone"/>
		<value value="8608896967"/> <!-- eh: todo format phone -->
		<use value="work"/>
		<rank value="1"/>
	</telecom>
	<telecom>
		<!-- Practitioner's phone max of two-->
		<system value="phone"/>
		<value value="8608897113"/> <!-- eh: todo format phone -->
		<use value="work"/>
		<rank value="2"/>
	</telecom>
	<address>
		<!-- Home address is 1600 Pennsylvania Ave NW, Washington, DC 20006, USA at latitude 38.897957 and longitude -77.036560 -->
		<extension url="http://hl7.org/fhir/StructureDefinition/geolocation">
					<extension url="latitude">
							<valueDecimal value="41.499398"/>
					</extension>
					<extension url="longitude">
							<valueDecimal value="-71.994757"/>
					</extension>
			</extension>
		<use value="home"/>
		<type value="both"/> <!-- eh:  todo make this a choice -->
		<text value="86 NEW LONDON TPKE, NORWICH, CT 063602616"/>
		<line value="86 NEW LONDON TPKE"/>
		<city value="NORWICH"/>
		<state value="CT"/>
		<postalCode value="063602616"/>
		<country value="USA"/>
<!--  EH: todo add this in
		<period>
			<start value="1932-02-22"/> 
		</period>
	-->
	</address>
	<gender value="male"/>
	<birthDate value="1964-06-19"/> <!--eh: do we need this -->
	
	<qualification> 
		<extension url="http://hl7.org/fhir/uv/vhdir/StructureDefinition/practitioner-qualification">
			
			<!-- the license is currently active and valid in Washington, DC  eh: randomize this and make max of two -->
			<extension url="status">
				<valueCoding>
					<system value="http://hl7.org/fhir/resource-status"/>
					<code value="active"/>
					<display value="active"/>
				</valueCoding>
				
			</extension>
			<extension url="whereValid">
				<valueCodeableConcept>
					<coding>
						<system value="https://www.usps.com/"/>
						<code value="CT"/>
						<display value="Connecticut"/>
						<userSelected value="true"/>
					</coding>
					<text value="Connecticut"/>
				</valueCodeableConcept>
			</extension>
		</extension>
		<identifier>
			<!-- eh: tdo make max of two -->
			<extension url="http://hl7.org/fhir/uv/vhdir/StructureDefinition/identifier-status">
				<valueCode value="active"/> <!-- This record is active  eh: randomize this -->
			</extension>
			<use value="official"/>
			<type>
				<text value="Medical License number"/>
			</type>
			<system value="https://doh.ct.gov/bomed"/> <!-- This is made up for now ... will need to research  -->
			<value value="025700"/>
			<period>
				<start value="2018-06-19"/>  # ask how to create these...can randomize
				<end value="2021-06-19"/>
			</period>
			<assigner>
				<display value="Connecticut Board of Medicine"/>
			</assigner>
		</identifier>
		<code>
			<coding>
				<system value="http://www.wpc.edi.com/taxonomy"/>
				<code value="207R00000X"/>
				<display value="Taxonomy code display"/>
				<userSelected value="true"/>
			</coding>
			<text value="Taxonomy code display"/>
		</code>
		<!--  eh: todo later ... discuss
		<period>
			<start value="2018-01-01"/>
			<end value="2020-01-01"/>
		</period>
		<issuer>
			<display value="http://qual_issuer"/>
		</issuer>
		-->
	</qualification> <!-- repeating qualification element -->
	<communication>
		<!-- eh: todo
			<extension url="http://hl7.org/fhir/uv/vhdir/StructureDefinition/communication-proficiency">
			<valueCodeableConcept>
				<coding>
					<code value="5"/>
					<display value="Native or bilingual proficiency"/>
					<userSelected value="true"/>
				</coding>
			</valueCodeableConcept>
		</extension> -->
		<coding>
			<system value="urn:ietf:bcp:47"/>
			<code value="en"/>
			<display value="English"/>
			<userSelected value="true"/>
		</coding> 
		<text value="English"/>
	</communication> <!-- repeating qualification element -->
	</Practitioner></resource>
 <request>  <!-- ?? 0..1 Additional execution information (transaction/batch/history) -->
  <method value="PUT"/>
  <url value="Practitioner/vhdir-practitioner-9991990013"/><!-- 1..1 URL for HTTP equivalent of this entry -->
 </request>
</entry>
<entry>
 <fullUrl value="http://test.fhir.org/r4/vhdir-practitioner-9997950411"/><!-- 0..1 URI for resource (Absolute URL server address or URI for UUID/OID) -->
 <resource><Practitioner xmlns="http://hl7.org/fhir">
	<!-- synthetic practitioner -->
	
	<id value="vhdir-practitioner-9997950411"/>
	<meta>
		<versionId value="1"/>
		<profile value="http://hl7.org/fhir/uv/vhdir/StructureDefinition/vhdir-practitioner"/>
	</meta>
	
<!--*******************************

 A reference to the practitioner's personal electronic endpoint (independent of their role with an organization)

url = 'type' Describes the practitioner's digital certificate. In this case, an identity certificate used for digitally signing, associated with the DirectTrust framework

************************************

	<extension url="http://hl7.org/fhir/uv/vhdir/StructureDefinition/endpoint-reference">	
		<valueReference>
			<reference value="Endpoint/vhdir-practitioner-9997950411"/>
			<display value="Practitioner 9997950411 Direct address"/>
		</valueReference>
	</extension>
	<extension url="http://hl7.org/fhir/uv/vhdir/StructureDefinition/digitalcertificate">
		<extension url="type">
			<valueCoding>
				<system value="http://hl7.org/fhir/uv/vhdir/CodeSystem/codesystem-digitalcertificate"/>
				<code value="ind"/>
				<display value="Individual"/>
			</valueCoding>
		</extension>
		<extension url="use">
			<valueCoding>
				<system value="http://hl7.org/fhir/uv/vhdir/CodeSystem/codesystem-digitalcertificate"/>
				<code value="signing"/>
				<display value="Signing"/>
			</valueCoding>
		</extension>
		<extension url="certificateStandard">
			<valueCoding>
				<system value="http://hl7.org/fhir/uv/vhdir/CodeSystem/codesystem-digitalcertificate"/>
				<code value="x.509v3"/>
				<display value="x.509v3"/>
			</valueCoding>
		</extension>
		<extension url="certificate">
			<valueString value=""/>
		</extension>
		<extension url="expirationDate">
			<valueDate value="1970-09-03"/>
		</extension>
		<extension url="trustFramework">
			<valueCodeableConcept>
				<coding>
					<system value="http://hl7.org/fhir/uv/vhdir/CodeSystem/codesystem-digitalcertificate"/>
					<code value="direct"/>
					<display value="DirectTrust"/>
					<userSelected value="true"/>
				</coding>
			</valueCodeableConcept>
		</extension>
	</extension>
-->

<!--********************	e.g. The practitioner provides culturally competent care for a local Native American tribe, the Piscataway People *********


	<extension url="http://hl7.org/fhir/uv/vhdir/StructureDefinition/accessibility">
		<valueCodeableConcept>
			<coding>
				<system value="http://hl7.org/fhir/uv/vhdir/CodeSystem/codesystem-accessibility"/>
				<code value="cultcomp"/>
				<display value="Cultural competence"/>
				<userSelected value="true"/>
			</coding>
			<text value="Coordinates care with tribal healers of the Piscataway People"/>
		</valueCodeableConcept>
	</extension>
	
-->
	<identifier>
		<!-- Practitioner's NPI number -->
		<extension url="http://hl7.org/fhir/uv/vhdir/StructureDefinition/identifier-status">
			<valueCode value="active"/><!-- active  eh: check for deactive codes or randomize this -->
		</extension>
		<use value="official"/>
		<type>
			<coding>
				<system value="http://terminology.hl7.org/CodeSystem/v2-0203"/>
				<code value="PRN"/>
				<display value="Provider number"/>
				<userSelected value="true"/>
			</coding>
			<text value="NPI"/>
		</type>
		<system value="http://hl7.org/fhir/sid/us-npi"/>
		<value value="9997950411"/>
		<period>  <!--  EH: add more values and stop values to this -->
			<start value="2005-07-16T09:00:00-05:00"/>
		</period>
		<assigner>
			<display value="CMS"/>
		</assigner>
	</identifier>
	
	<active value="active"/> 
	<!-- This record is active  eh: randomize this -->
	<name>

		<use value="official"/>
		<text value="Cole Bosco"/>
		<family value="Bosco"/>
		<given value="Cole"/>
		<suffix value="DDS"/>
	</name>
	<telecom>
		<!-- max of two-->
		<system value="phone"/>
		<value value="2034887799"/> <!-- eh: todo format phone -->
		<use value="work"/>
		<rank value="1"/>
	</telecom>
	<telecom>
		<!-- Practitioner's phone max of two-->
		<system value="phone"/>
		<value value="2034886899"/> <!-- eh: todo format phone -->
		<use value="work"/>
		<rank value="2"/>
	</telecom>
	<address>
		<!-- Home address is 1600 Pennsylvania Ave NW, Washington, DC 20006, USA at latitude 38.897957 and longitude -77.036560 -->
		<extension url="http://hl7.org/fhir/StructureDefinition/geolocation">
					<extension url="latitude">
							<valueDecimal value="41.284746"/>
					</extension>
					<extension url="longitude">
							<valueDecimal value="-72.796292"/>
					</extension>
			</extension>
		<use value="home"/>
		<type value="both"/> <!-- eh:  todo make this a choice -->
		<text value="5 S MAIN ST, BRANFORD, CT 064053846"/>
		<line value="5 S MAIN ST"/>
		<city value="BRANFORD"/>
		<state value="CT"/>
		<postalCode value="064053846"/>
		<country value="USA"/>
<!--  EH: todo add this in
		<period>
			<start value="1932-02-22"/> 
		</period>
	-->
	</address>
	<gender value="male"/>
	<birthDate value="1964-06-19"/> <!--eh: do we need this -->
	
	<qualification> 
		<extension url="http://hl7.org/fhir/uv/vhdir/StructureDefinition/practitioner-qualification">
			
			<!-- the license is currently active and valid in Washington, DC  eh: randomize this and make max of two -->
			<extension url="status">
				<valueCoding>
					<system value="http://hl7.org/fhir/resource-status"/>
					<code value="active"/>
					<display value="active"/>
				</valueCoding>
				
			</extension>
			<extension url="whereValid">
				<valueCodeableConcept>
					<coding>
						<system value="https://www.usps.com/"/>
						<code value="CT"/>
						<display value="Connecticut"/>
						<userSelected value="true"/>
					</coding>
					<text value="Connecticut"/>
				</valueCodeableConcept>
			</extension>
		</extension>
		<identifier>
			<!-- eh: tdo make max of two -->
			<extension url="http://hl7.org/fhir/uv/vhdir/StructureDefinition/identifier-status">
				<valueCode value="active"/> <!-- This record is active  eh: randomize this -->
			</extension>
			<use value="official"/>
			<type>
				<text value="Medical License number"/>
			</type>
			<system value="https://doh.ct.gov/bomed"/> <!-- This is made up for now ... will need to research  -->
			<value value="007551"/>
			<period>
				<start value="2018-06-19"/>  # ask how to create these...can randomize
				<end value="2021-06-19"/>
			</period>
			<assigner>
				<display value="Connecticut Board of Medicine"/>
			</assigner>
		</identifier>
		<code>
			<coding>
				<system value="http://www.wpc.edi.com/taxonomy"/>
				<code value="1223G0001X"/>
				<display value="Taxonomy code display"/>
				<userSelected value="true"/>
			</coding>
			<text value="Taxonomy code display"/>
		</code>
		<!--  eh: todo later ... discuss
		<period>
			<start value="2018-01-01"/>
			<end value="2020-01-01"/>
		</period>
		<issuer>
			<display value="http://qual_issuer"/>
		</issuer>
		-->
	</qualification> <!-- repeating qualification element -->
	<communication>
		<!-- eh: todo
			<extension url="http://hl7.org/fhir/uv/vhdir/StructureDefinition/communication-proficiency">
			<valueCodeableConcept>
				<coding>
					<code value="5"/>
					<display value="Native or bilingual proficiency"/>
					<userSelected value="true"/>
				</coding>
			</valueCodeableConcept>
		</extension> -->
		<coding>
			<system value="urn:ietf:bcp:47"/>
			<code value="en"/>
			<display value="English"/>
			<userSelected value="true"/>
		</coding> 
		<text value="English"/>
	</communication> <!-- repeating qualification element -->
	</Practitioner></resource>
 <request>  <!-- ?? 0..1 Additional execution information (transaction/batch/history) -->
  <method value="PUT"/>
  <url value="Practitioner/vhdir-practitioner-9997950411"/><!-- 1..1 URL for HTTP equivalent of this entry -->
 </request>
</entry>
<entry>
 <fullUrl value="http://test.fhir.org/r4/vhdir-practitioner-9994627184"/><!-- 0..1 URI for resource (Absolute URL server address or URI for UUID/OID) -->
 <resource><Practitioner xmlns="http://hl7.org/fhir">
	<!-- synthetic practitioner -->
	
	<id value="vhdir-practitioner-9994627184"/>
	<meta>
		<versionId value="1"/>
		<profile value="http://hl7.org/fhir/uv/vhdir/StructureDefinition/vhdir-practitioner"/>
	</meta>
	
<!--*******************************

 A reference to the practitioner's personal electronic endpoint (independent of their role with an organization)

url = 'type' Describes the practitioner's digital certificate. In this case, an identity certificate used for digitally signing, associated with the DirectTrust framework

************************************

	<extension url="http://hl7.org/fhir/uv/vhdir/StructureDefinition/endpoint-reference">	
		<valueReference>
			<reference value="Endpoint/vhdir-practitioner-9994627184"/>
			<display value="Practitioner 9994627184 Direct address"/>
		</valueReference>
	</extension>
	<extension url="http://hl7.org/fhir/uv/vhdir/StructureDefinition/digitalcertificate">
		<extension url="type">
			<valueCoding>
				<system value="http://hl7.org/fhir/uv/vhdir/CodeSystem/codesystem-digitalcertificate"/>
				<code value="ind"/>
				<display value="Individual"/>
			</valueCoding>
		</extension>
		<extension url="use">
			<valueCoding>
				<system value="http://hl7.org/fhir/uv/vhdir/CodeSystem/codesystem-digitalcertificate"/>
				<code value="signing"/>
				<display value="Signing"/>
			</valueCoding>
		</extension>
		<extension url="certificateStandard">
			<valueCoding>
				<system value="http://hl7.org/fhir/uv/vhdir/CodeSystem/codesystem-digitalcertificate"/>
				<code value="x.509v3"/>
				<display value="x.509v3"/>
			</valueCoding>
		</extension>
		<extension url="certificate">
			<valueString value=""/>
		</extension>
		<extension url="expirationDate">
			<valueDate value="1970-09-03"/>
		</extension>
		<extension url="trustFramework">
			<valueCodeableConcept>
				<coding>
					<system value="http://hl7.org/fhir/uv/vhdir/CodeSystem/codesystem-digitalcertificate"/>
					<code value="direct"/>
					<display value="DirectTrust"/>
					<userSelected value="true"/>
				</coding>
			</valueCodeableConcept>
		</extension>
	</extension>
-->

<!--********************	e.g. The practitioner provides culturally competent care for a local Native American tribe, the Piscataway People *********


	<extension url="http://hl7.org/fhir/uv/vhdir/StructureDefinition/accessibility">
		<valueCodeableConcept>
			<coding>
				<system value="http://hl7.org/fhir/uv/vhdir/CodeSystem/codesystem-accessibility"/>
				<code value="cultcomp"/>
				<display value="Cultural competence"/>
				<userSelected value="true"/>
			</coding>
			<text value="Coordinates care with tribal healers of the Piscataway People"/>
		</valueCodeableConcept>
	</extension>
	
-->
	<identifier>
		<!-- Practitioner's NPI number -->
		<extension url="http://hl7.org/fhir/uv/vhdir/StructureDefinition/identifier-status">
			<valueCode value="active"/><!-- active  eh: check for deactive codes or randomize this -->
		</extension>
		<use value="official"/>
		<type>
			<coding>
				<system value="http://terminology.hl7.org/CodeSystem/v2-0203"/>
				<code value="PRN"/>
				<display value="Provider number"/>
				<userSelected value="true"/>
			</coding>
			<text value="NPI"/>
		</type>
		<system value="http://hl7.org/fhir/sid/us-npi"/>
		<value value="9994627184"/>
		<period>  <!--  EH: add more values and stop values to this -->
			<start value="2005-07-16T09:00:00-05:00"/>
		</period>
		<assigner>
			<display value="CMS"/>
		</assigner>
	</identifier>
	
	<active value="active"/> 
	<!-- This record is active  eh: randomize this -->
	<name>

		<use value="official"/>
		<text value="Concepci&#243;n Grijalva"/>
		<family value="Grijalva"/>
		<given value="Concepci&#243;n"/>
		<suffix value="LICSW"/>
	</name>
	<telecom>
		<!-- max of two-->
		<system value="phone"/>
		<value value="5089302342"/> <!-- eh: todo format phone -->
		<use value="work"/>
		<rank value="1"/>
	</telecom>
	<telecom>
		<!-- Practitioner's phone max of two-->
		<system value="phone"/>
		<value value="7814496210"/> <!-- eh: todo format phone -->
		<use value="work"/>
		<rank value="2"/>
	</telecom>
	<address>
		<!-- Home address is 1600 Pennsylvania Ave NW, Washington, DC 20006, USA at latitude 38.897957 and longitude -77.036560 -->
		<extension url="http://hl7.org/fhir/StructureDefinition/geolocation">
					<extension url="latitude">
							<valueDecimal value="42.279797"/>
					</extension>
					<extension url="longitude">
							<valueDecimal value="-71.25006"/>
					</extension>
			</extension>
		<use value="home"/>
		<type value="both"/> <!-- eh:  todo make this a choice -->
		<text value="8 OLD GREENDALE AVE, NEEDHAM, MA 024924424"/>
		<line value="8 OLD GREENDALE AVE"/>
		<city value="NEEDHAM"/>
		<state value="MA"/>
		<postalCode value="024924424"/>
		<country value="USA"/>
<!--  EH: todo add this in
		<period>
			<start value="1932-02-22"/> 
		</period>
	-->
	</address>
	<gender value="female"/>
	<birthDate value="1964-06-19"/> <!--eh: do we need this -->
	
	<qualification> 
		<extension url="http://hl7.org/fhir/uv/vhdir/StructureDefinition/practitioner-qualification">
			
			<!-- the license is currently active and valid in Washington, DC  eh: randomize this and make max of two -->
			<extension url="status">
				<valueCoding>
					<system value="http://hl7.org/fhir/resource-status"/>
					<code value="active"/>
					<display value="active"/>
				</valueCoding>
				
			</extension>
			<extension url="whereValid">
				<valueCodeableConcept>
					<coding>
						<system value="https://www.usps.com/"/>
						<code value="MA"/>
						<display value="Massachusetts"/>
						<userSelected value="true"/>
					</coding>
					<text value="Massachusetts"/>
				</valueCodeableConcept>
			</extension>
		</extension>
		<identifier>
			<!-- eh: tdo make max of two -->
			<extension url="http://hl7.org/fhir/uv/vhdir/StructureDefinition/identifier-status">
				<valueCode value="active"/> <!-- This record is active  eh: randomize this -->
			</extension>
			<use value="official"/>
			<type>
				<text value="Medical License number"/>
			</type>
			<system value="https://doh.ma.gov/bomed"/> <!-- This is made up for now ... will need to research  -->
			<value value="1020965"/>
			<period>
				<start value="2018-06-19"/>  # ask how to create these...can randomize
				<end value="2021-06-19"/>
			</period>
			<assigner>
				<display value="Massachusetts Board of Medicine"/>
			</assigner>
		</identifier>
		<code>
			<coding>
				<system value="http://www.wpc.edi.com/taxonomy"/>
				<code value="1041C0700X"/>
				<display value="Behavioral Health &amp; Social Service Providers/Social Worker, Clinical"/>
				<userSelected value="true"/>
			</coding>
			<text value="Behavioral Health &amp; Social Service Providers/Social Worker, Clinical"/>
		</code>
		<!--  eh: todo later ... discuss
		<period>
			<start value="2018-01-01"/>
			<end value="2020-01-01"/>
		</period>
		<issuer>
			<display value="http://qual_issuer"/>
		</issuer>
		-->
	</qualification> <!-- repeating qualification element -->
	<communication>
		<!-- eh: todo
			<extension url="http://hl7.org/fhir/uv/vhdir/StructureDefinition/communication-proficiency">
			<valueCodeableConcept>
				<coding>
					<code value="5"/>
					<display value="Native or bilingual proficiency"/>
					<userSelected value="true"/>
				</coding>
			</valueCodeableConcept>
		</extension> -->
		<coding>
			<system value="urn:ietf:bcp:47"/>
			<code value="en"/>
			<display value="English"/>
			<userSelected value="true"/>
		</coding> 
		<text value="English"/>
	</communication> <!-- repeating qualification element -->
	</Practitioner></resource>
 <request>  <!-- ?? 0..1 Additional execution information (transaction/batch/history) -->
  <method value="PUT"/>
  <url value="Practitioner/vhdir-practitioner-9994627184"/><!-- 1..1 URL for HTTP equivalent of this entry -->
 </request>
</entry>
<entry>
 <fullUrl value="http://test.fhir.org/r4/vhdir-practitioner-9994526172"/><!-- 0..1 URI for resource (Absolute URL server address or URI for UUID/OID) -->
 <resource><Practitioner xmlns="http://hl7.org/fhir">
	<!-- synthetic practitioner -->
	
	<id value="vhdir-practitioner-9994526172"/>
	<meta>
		<versionId value="1"/>
		<profile value="http://hl7.org/fhir/uv/vhdir/StructureDefinition/vhdir-practitioner"/>
	</meta>
	
<!--*******************************

 A reference to the practitioner's personal electronic endpoint (independent of their role with an organization)

url = 'type' Describes the practitioner's digital certificate. In this case, an identity certificate used for digitally signing, associated with the DirectTrust framework

************************************

	<extension url="http://hl7.org/fhir/uv/vhdir/StructureDefinition/endpoint-reference">	
		<valueReference>
			<reference value="Endpoint/vhdir-practitioner-9994526172"/>
			<display value="Practitioner 9994526172 Direct address"/>
		</valueReference>
	</extension>
	<extension url="http://hl7.org/fhir/uv/vhdir/StructureDefinition/digitalcertificate">
		<extension url="type">
			<valueCoding>
				<system value="http://hl7.org/fhir/uv/vhdir/CodeSystem/codesystem-digitalcertificate"/>
				<code value="ind"/>
				<display value="Individual"/>
			</valueCoding>
		</extension>
		<extension url="use">
			<valueCoding>
				<system value="http://hl7.org/fhir/uv/vhdir/CodeSystem/codesystem-digitalcertificate"/>
				<code value="signing"/>
				<display value="Signing"/>
			</valueCoding>
		</extension>
		<extension url="certificateStandard">
			<valueCoding>
				<system value="http://hl7.org/fhir/uv/vhdir/CodeSystem/codesystem-digitalcertificate"/>
				<code value="x.509v3"/>
				<display value="x.509v3"/>
			</valueCoding>
		</extension>
		<extension url="certificate">
			<valueString value=""/>
		</extension>
		<extension url="expirationDate">
			<valueDate value="1970-09-03"/>
		</extension>
		<extension url="trustFramework">
			<valueCodeableConcept>
				<coding>
					<system value="http://hl7.org/fhir/uv/vhdir/CodeSystem/codesystem-digitalcertificate"/>
					<code value="direct"/>
					<display value="DirectTrust"/>
					<userSelected value="true"/>
				</coding>
			</valueCodeableConcept>
		</extension>
	</extension>
-->

<!--********************	e.g. The practitioner provides culturally competent care for a local Native American tribe, the Piscataway People *********


	<extension url="http://hl7.org/fhir/uv/vhdir/StructureDefinition/accessibility">
		<valueCodeableConcept>
			<coding>
				<system value="http://hl7.org/fhir/uv/vhdir/CodeSystem/codesystem-accessibility"/>
				<code value="cultcomp"/>
				<display value="Cultural competence"/>
				<userSelected value="true"/>
			</coding>
			<text value="Coordinates care with tribal healers of the Piscataway People"/>
		</valueCodeableConcept>
	</extension>
	
-->
	<identifier>
		<!-- Practitioner's NPI number -->
		<extension url="http://hl7.org/fhir/uv/vhdir/StructureDefinition/identifier-status">
			<valueCode value="active"/><!-- active  eh: check for deactive codes or randomize this -->
		</extension>
		<use value="official"/>
		<type>
			<coding>
				<system value="http://terminology.hl7.org/CodeSystem/v2-0203"/>
				<code value="PRN"/>
				<display value="Provider number"/>
				<userSelected value="true"/>
			</coding>
			<text value="NPI"/>
		</type>
		<system value="http://hl7.org/fhir/sid/us-npi"/>
		<value value="9994526172"/>
		<period>  <!--  EH: add more values and stop values to this -->
			<start value="2005-07-16T09:00:00-05:00"/>
		</period>
		<assigner>
			<display value="CMS"/>
		</assigner>
	</identifier>
	
	<active value="active"/> 
	<!-- This record is active  eh: randomize this -->
	<name>

		<use value="official"/>
		<text value="Esperanza V&#233;liz"/>
		<family value="V&#233;liz"/>
		<given value="Esperanza"/>
		<suffix value="D.M.D."/>
	</name>
	<telecom>
		<!-- max of two-->
		<system value="phone"/>
		<value value="9782564551"/> <!-- eh: todo format phone -->
		<use value="work"/>
		<rank value="1"/>
	</telecom>
	<telecom>
		<!-- Practitioner's phone max of two-->
		<system value="phone"/>
		<value value="9783696176"/> <!-- eh: todo format phone -->
		<use value="work"/>
		<rank value="2"/>
	</telecom>
	<address>
		<!-- Home address is 1600 Pennsylvania Ave NW, Washington, DC 20006, USA at latitude 38.897957 and longitude -77.036560 -->
		<extension url="http://hl7.org/fhir/StructureDefinition/geolocation">
					<extension url="latitude">
							<valueDecimal value="42.446396"/>
					</extension>
					<extension url="longitude">
							<valueDecimal value="-71.459405"/>
					</extension>
			</extension>
		<use value="home"/>
		<type value="both"/> <!-- eh:  todo make this a choice -->
		<text value="1 MEETING HOUSE RD, CHELMSFORD, MA 018242733"/>
		<line value="1 MEETING HOUSE RD"/>
		<city value="CHELMSFORD"/>
		<state value="MA"/>
		<postalCode value="018242733"/>
		<country value="USA"/>
<!--  EH: todo add this in
		<period>
			<start value="1932-02-22"/> 
		</period>
	-->
	</address>
	<gender value="female"/>
	<birthDate value="1964-06-19"/> <!--eh: do we need this -->
	
	<qualification> 
		<extension url="http://hl7.org/fhir/uv/vhdir/StructureDefinition/practitioner-qualification">
			
			<!-- the license is currently active and valid in Washington, DC  eh: randomize this and make max of two -->
			<extension url="status">
				<valueCoding>
					<system value="http://hl7.org/fhir/resource-status"/>
					<code value="active"/>
					<display value="active"/>
				</valueCoding>
				
			</extension>
			<extension url="whereValid">
				<valueCodeableConcept>
					<coding>
						<system value="https://www.usps.com/"/>
						<code value="MA"/>
						<display value="Massachusetts"/>
						<userSelected value="true"/>
					</coding>
					<text value="Massachusetts"/>
				</valueCodeableConcept>
			</extension>
		</extension>
		<identifier>
			<!-- eh: tdo make max of two -->
			<extension url="http://hl7.org/fhir/uv/vhdir/StructureDefinition/identifier-status">
				<valueCode value="active"/> <!-- This record is active  eh: randomize this -->
			</extension>
			<use value="official"/>
			<type>
				<text value="Medical License number"/>
			</type>
			<system value="https://doh.ma.gov/bomed"/> <!-- This is made up for now ... will need to research  -->
			<value value="18863"/>
			<period>
				<start value="2018-06-19"/>  # ask how to create these...can randomize
				<end value="2021-06-19"/>
			</period>
			<assigner>
				<display value="Massachusetts Board of Medicine"/>
			</assigner>
		</identifier>
		<code>
			<coding>
				<system value="http://www.wpc.edi.com/taxonomy"/>
				<code value="1223G0001X"/>
				<display value="Taxonomy code display"/>
				<userSelected value="true"/>
			</coding>
			<text value="Taxonomy code display"/>
		</code>
		<!--  eh: todo later ... discuss
		<period>
			<start value="2018-01-01"/>
			<end value="2020-01-01"/>
		</period>
		<issuer>
			<display value="http://qual_issuer"/>
		</issuer>
		-->
	</qualification> <!-- repeating qualification element -->
	<communication>
			<!-- eh: todo
				<extension url="http://hl7.org/fhir/uv/vhdir/StructureDefinition/communication-proficiency">
				<valueCodeableConcept>
		<coding>
			<system value="urn:ietf:bcp:47"/>
			<code value="en"/>
			<display value="English"/>
			<userSelected value="true"/>
		</coding> 
				</valueCodeableConcept>
			</extension> -->
		<coding>
			<system value="urn:ietf:bcp:47"/>
			<code value="es"/>
			<display value="Spanish"/>
			<userSelected value="true"/>
		</coding> 
			<text value="English and Spanish"/>
		</communication>
		<communication>
			<!-- eh: todo
				<extension url="http://hl7.org/fhir/uv/vhdir/StructureDefinition/communication-proficiency">
				<valueCodeableConcept>
					<coding>
						<code value="5"/>
						<display value="Native or bilingual proficiency"/>
						<userSelected value="true"/>
					</coding>
				</valueCodeableConcept>
			</extension> -->
			<coding>
				<system value="urn:ietf:bcp:47"/>
				<code value="{communication_code}"/>
				<display value="{communication_display}"/>
				<userSelected value="true"/>
			</coding> 
			<text value="{communication_display}"/>
		</communication> <!-- repeating qualification element -->
	</Practitioner></resource>
 <request>  <!-- ?? 0..1 Additional execution information (transaction/batch/history) -->
  <method value="PUT"/>
  <url value="Practitioner/vhdir-practitioner-9994526172"/><!-- 1..1 URL for HTTP equivalent of this entry -->
 </request>
</entry>
</Bundle>
