<?xml version="1.0" encoding="UTF-8"?>

<Bundle xmlns="http://hl7.org/fhir">
  <id value="vhdir-managing-org-examples-bundle"/>
  <meta>
    <versionId value="4"/>
    <lastUpdated value="2019-01-09T17:23:32.219-05:00"/>
  </meta>
  <type value="batch"/>
  <timestamp value="2019-01-09T22:23:25.153766Z"/>
  <entry>
    <fullUrl value="http://vhdir-demo.fhir.org/fhir/Organization/vhdir-managing-org-9990010000"/>
    <resource>
      <Organization>
        <id value="vhdir-managing-org-9990010000"/>
        <meta>
          <profile value="http://hl7.org/fhir/uv/vhdir/StructureDefinition/vhdir-organization"/>
        </meta>
        <identifier>
          <extension url="http://hl7.org/fhir/uv/vhdir/StructureDefinition/identifier-status">
            <valueCode value="active"/>
          </extension>
          <use value="official"/>
          <type>
            <coding>
              <system value="http://terminology.hl7.org/CodeSystem/v2-0203"/>
              <code value="NPI"/>
              <display value="National provider identifier"/>
            </coding>
            <text value="NPI"/>
          </type>
          <system value="http://hl7.org/fhir/sid/us-npi"/>
          <value value="9990010000"/>
          <period>
            <start value="2004-04-21T11:57:00-05:00"/>
          </period>
          <assigner>
            <display value="Centers for Medicare and Medicaid Services"/>
          </assigner>
        </identifier>
        <active value="true"/>
        <type>
          <coding>
            <system value="http://terminology.hl7.org/CodeSystem/organization-type"/>
            <code value="prov"/>
            <display value="HealthCare Provider"/>
          </coding>
          <text value="HealthCare Provider"/>
        </type>
        <name value="King Hospital System"/>
        <telecom>
          <system value="phone"/>
          <value value="6075555555"/>
        </telecom>
        <address>
          <extension url="http://hl7.org/fhir/StructureDefinition/geolocation">
            <extension url="latitude">
              <valueDecimal value="42.370567"/>
            </extension>
            <extension url="longitude">
              <valueDecimal value="-71.026964"/>
            </extension>
          </extension>
          <use value="work"/>
          <type value="both"/>
          <text value="50 Park Plaza, Boston, MA 2101"/>
          <line value="50 Park Plaza"/>
          <city value="Boston"/>
          <state value="MA"/>
          <postalCode value="2101"/>
          <country value="USA"/>
        </address>
        <contact>
          <purpose>
            <coding>
              <system value="http://terminology.hl7.org/CodeSystem/contactentity-type"/>
              <code value="ADMIN"/>
              <display value="Administrative"/>
            </coding>
          </purpose>
          <name>
            <use value="official"/>
            <text value="Kathy Contact"/>
            <family value="Contact"/>
            <given value="Kathy"/>
          </name>
          <telecom>
            <extension url="http://hl7.org/fhir/uv/vhdir/StructureDefinition/contactpoint-availabletime">
              <extension url="daysOfWeek">
                <valueCode value="mon"/>
              </extension>
              <extension url="daysOfWeek">
                <valueCode value="tue"/>
              </extension>
              <extension url="daysOfWeek">
                <valueCode value="wed"/>
              </extension>
              <extension url="daysOfWeek">
                <valueCode value="thu"/>
              </extension>
              <extension url="daysOfWeek">
                <valueCode value="fri"/>
              </extension>
              <extension url="availableStartTime">
                <valueTime value="07:00:00"/>
              </extension>
              <extension url="availableEndTime">
                <valueTime value="18:00:00"/>
              </extension>
            </extension>
            <system value="phone"/>
            <value value="6075555555"/>
            <use value="work"/>
          </telecom>
        </contact>
        <endpoint>
          <reference value="Endpoint/vhdir-managing-org-9990010000-direct"/>
          <display value="King Hospital System Direct address"/>
        </endpoint>
      </Organization>
    </resource>
    <request>
      <method value="PUT"/>
      <url value="Organization/vhdir-managing-org-9990010000"/>
    </request>
  </entry>
  <entry>
    <fullUrl value="http://vhdir-demo.fhir.org/fhir/Organization/vhdir-managing-org-9990020000"/>
    <resource>
      <Organization>
        <id value="vhdir-managing-org-9990020000"/>
        <meta>
          <profile value="http://hl7.org/fhir/uv/vhdir/StructureDefinition/vhdir-organization"/>
        </meta>
        <identifier>
          <extension url="http://hl7.org/fhir/uv/vhdir/StructureDefinition/identifier-status">
            <valueCode value="active"/>
          </extension>
          <use value="official"/>
          <type>
            <coding>
              <system value="http://terminology.hl7.org/CodeSystem/v2-0203"/>
              <code value="NPI"/>
              <display value="National provider identifier"/>
            </coding>
            <text value="NPI"/>
          </type>
          <system value="http://hl7.org/fhir/sid/us-npi"/>
          <value value="9990020000"/>
          <period>
            <start value="2004-04-21T11:57:00-05:00"/>
          </period>
          <assigner>
            <display value="Centers for Medicare and Medicaid Services"/>
          </assigner>
        </identifier>
        <active value="true"/>
        <type>
          <coding>
            <system value="http://terminology.hl7.org/CodeSystem/organization-type"/>
            <code value="prov"/>
            <display value="HealthCare Provider"/>
          </coding>
          <text value="HealthCare Provider"/>
        </type>
        <name value="Acme Healthcare"/>
        <telecom>
          <system value="phone"/>
          <value value="9595555555"/>
        </telecom>
        <address>
          <extension url="http://hl7.org/fhir/StructureDefinition/geolocation">
            <extension url="latitude">
              <valueDecimal value="41.791776"/>
            </extension>
            <extension url="longitude">
              <valueDecimal value="-72.718832"/>
            </extension>
          </extension>
          <use value="work"/>
          <type value="both"/>
          <text value="263 Farmington Avenue, Farmington, CT 6030"/>
          <line value="263 Farmington Avenue"/>
          <city value="Farmington"/>
          <state value="CT"/>
          <postalCode value="6030"/>
          <country value="USA"/>
        </address>
        <contact>
          <purpose>
            <coding>
              <system value="http://terminology.hl7.org/CodeSystem/contactentity-type"/>
              <code value="ADMIN"/>
              <display value="Administrative"/>
            </coding>
          </purpose>
          <name>
            <use value="official"/>
            <text value="Kathy Contact"/>
            <family value="Contact"/>
            <given value="Kathy"/>
          </name>
          <telecom>
            <extension url="http://hl7.org/fhir/uv/vhdir/StructureDefinition/contactpoint-availabletime">
              <extension url="daysOfWeek">
                <valueCode value="mon"/>
              </extension>
              <extension url="daysOfWeek">
                <valueCode value="tue"/>
              </extension>
              <extension url="daysOfWeek">
                <valueCode value="wed"/>
              </extension>
              <extension url="daysOfWeek">
                <valueCode value="thu"/>
              </extension>
              <extension url="daysOfWeek">
                <valueCode value="fri"/>
              </extension>
              <extension url="availableStartTime">
                <valueTime value="07:00:00"/>
              </extension>
              <extension url="availableEndTime">
                <valueTime value="18:00:00"/>
              </extension>
            </extension>
            <system value="phone"/>
            <value value="9595555555"/>
            <use value="work"/>
          </telecom>
        </contact>
        <endpoint>
          <reference value="Endpoint/vhdir-managing-org-9990020000-direct"/>
          <display value="Acme Healthcare Direct address"/>
        </endpoint>
      </Organization>
    </resource>
    <request>
      <method value="PUT"/>
      <url value="Organization/vhdir-managing-org-9990020000"/>
    </request>
  </entry>
  <entry>
    <fullUrl value="http://vhdir-demo.fhir.org/fhir/Organization/vhdir-managing-org-9990030000"/>
    <resource>
      <Organization>
        <id value="vhdir-managing-org-9990030000"/>
        <meta>
          <profile value="http://hl7.org/fhir/uv/vhdir/StructureDefinition/vhdir-organization"/>
        </meta>
        <identifier>
          <extension url="http://hl7.org/fhir/uv/vhdir/StructureDefinition/identifier-status">
            <valueCode value="active"/>
          </extension>
          <use value="official"/>
          <type>
            <coding>
              <system value="http://terminology.hl7.org/CodeSystem/v2-0203"/>
              <code value="NPI"/>
              <display value="National provider identifier"/>
            </coding>
            <text value="NPI"/>
          </type>
          <system value="http://hl7.org/fhir/sid/us-npi"/>
          <value value="9990030000"/>
          <period>
            <start value="2004-04-21T11:57:00-05:00"/>
          </period>
          <assigner>
            <display value="Centers for Medicare and Medicaid Services"/>
          </assigner>
        </identifier>
        <active value="true"/>
        <type>
          <coding>
            <system value="http://terminology.hl7.org/CodeSystem/organization-type"/>
            <code value="prov"/>
            <display value="HealthCare Provider"/>
          </coding>
          <text value="HealthCare Provider"/>
        </type>
        <name value="Blue Hope"/>
        <telecom>
          <system value="phone"/>
          <value value="4015555555"/>
        </telecom>
        <address>
          <extension url="http://hl7.org/fhir/StructureDefinition/geolocation">
            <extension url="latitude">
              <valueDecimal value="41.82275"/>
            </extension>
            <extension url="longitude">
              <valueDecimal value="-71.414451"/>
            </extension>
          </extension>
          <use value="work"/>
          <type value="both"/>
          <text value="45 Willard Ave, Providence, RI 2901"/>
          <line value="45 Willard Ave"/>
          <city value="Providence"/>
          <state value="RI"/>
          <postalCode value="2901"/>
          <country value="USA"/>
        </address>
        <contact>
          <purpose>
            <coding>
              <system value="http://terminology.hl7.org/CodeSystem/contactentity-type"/>
              <code value="ADMIN"/>
              <display value="Administrative"/>
            </coding>
          </purpose>
          <name>
            <use value="official"/>
            <text value="Kathy Contact"/>
            <family value="Contact"/>
            <given value="Kathy"/>
          </name>
          <telecom>
            <extension url="http://hl7.org/fhir/uv/vhdir/StructureDefinition/contactpoint-availabletime">
              <extension url="daysOfWeek">
                <valueCode value="mon"/>
              </extension>
              <extension url="daysOfWeek">
                <valueCode value="tue"/>
              </extension>
              <extension url="daysOfWeek">
                <valueCode value="wed"/>
              </extension>
              <extension url="daysOfWeek">
                <valueCode value="thu"/>
              </extension>
              <extension url="daysOfWeek">
                <valueCode value="fri"/>
              </extension>
              <extension url="availableStartTime">
                <valueTime value="07:00:00"/>
              </extension>
              <extension url="availableEndTime">
                <valueTime value="18:00:00"/>
              </extension>
            </extension>
            <system value="phone"/>
            <value value="4015555555"/>
            <use value="work"/>
          </telecom>
        </contact>
        <endpoint>
          <reference value="Endpoint/vhdir-managing-org-9990030000-direct"/>
          <display value="Blue Hope Direct address"/>
        </endpoint>
      </Organization>
    </resource>
    <request>
      <method value="PUT"/>
      <url value="Organization/vhdir-managing-org-9990030000"/>
    </request>
  </entry>
  <entry>
    <fullUrl value="http://vhdir-demo.fhir.org/fhir/Organization/vhdir-managing-org-9990040000"/>
    <resource>
      <Organization>
        <id value="vhdir-managing-org-9990040000"/>
        <meta>
          <profile value="http://hl7.org/fhir/uv/vhdir/StructureDefinition/vhdir-organization"/>
        </meta>
        <identifier>
          <extension url="http://hl7.org/fhir/uv/vhdir/StructureDefinition/identifier-status">
            <valueCode value="active"/>
          </extension>
          <use value="official"/>
          <type>
            <coding>
              <system value="http://terminology.hl7.org/CodeSystem/v2-0203"/>
              <code value="NPI"/>
              <display value="National provider identifier"/>
            </coding>
            <text value="NPI"/>
          </type>
          <system value="http://hl7.org/fhir/sid/us-npi"/>
          <value value="9990040000"/>
          <period>
            <start value="2004-04-21T11:57:00-05:00"/>
          </period>
          <assigner>
            <display value="Centers for Medicare and Medicaid Services"/>
          </assigner>
        </identifier>
        <active value="true"/>
        <type>
          <coding>
            <system value="http://terminology.hl7.org/CodeSystem/organization-type"/>
            <code value="prov"/>
            <display value="HealthCare Provider"/>
          </coding>
          <text value="HealthCare Provider"/>
        </type>
        <name value="Western Massachusetts HIE"/>
        <telecom>
          <system value="phone"/>
          <value value="6075555555"/>
        </telecom>
        <address>
          <extension url="http://hl7.org/fhir/StructureDefinition/geolocation">
            <extension url="latitude">
              <valueDecimal value="42.345079"/>
            </extension>
            <extension url="longitude">
              <valueDecimal value="-71.107653"/>
            </extension>
          </extension>
          <use value="work"/>
          <type value="both"/>
          <text value="4 Yawkey Way, Boston, MA 2215"/>
          <line value="4 Yawkey Way"/>
          <city value="Boston"/>
          <state value="MA"/>
          <postalCode value="2215"/>
          <country value="USA"/>
        </address>
        <contact>
          <purpose>
            <coding>
              <system value="http://terminology.hl7.org/CodeSystem/contactentity-type"/>
              <code value="ADMIN"/>
              <display value="Administrative"/>
            </coding>
          </purpose>
          <name>
            <use value="official"/>
            <text value="Kathy Contact"/>
            <family value="Contact"/>
            <given value="Kathy"/>
          </name>
          <telecom>
            <extension url="http://hl7.org/fhir/uv/vhdir/StructureDefinition/contactpoint-availabletime">
              <extension url="daysOfWeek">
                <valueCode value="mon"/>
              </extension>
              <extension url="daysOfWeek">
                <valueCode value="tue"/>
              </extension>
              <extension url="daysOfWeek">
                <valueCode value="wed"/>
              </extension>
              <extension url="daysOfWeek">
                <valueCode value="thu"/>
              </extension>
              <extension url="daysOfWeek">
                <valueCode value="fri"/>
              </extension>
              <extension url="availableStartTime">
                <valueTime value="07:00:00"/>
              </extension>
              <extension url="availableEndTime">
                <valueTime value="18:00:00"/>
              </extension>
            </extension>
            <system value="phone"/>
            <value value="6075555555"/>
            <use value="work"/>
          </telecom>
        </contact>
        <endpoint>
          <reference value="Endpoint/vhdir-managing-org-9990040000-direct"/>
          <display value="Western Massachusetts HIE Direct address"/>
        </endpoint>
      </Organization>
    </resource>
    <request>
      <method value="PUT"/>
      <url value="Organization/vhdir-managing-org-9990040000"/>
    </request>
  </entry>
  <entry>
    <fullUrl value="http://vhdir-demo.fhir.org/fhir/Organization/vhdir-managing-org-9990050000"/>
    <resource>
      <Organization>
        <id value="vhdir-managing-org-9990050000"/>
        <meta>
          <profile value="http://hl7.org/fhir/uv/vhdir/StructureDefinition/vhdir-organization"/>
        </meta>
        <identifier>
          <extension url="http://hl7.org/fhir/uv/vhdir/StructureDefinition/identifier-status">
            <valueCode value="active"/>
          </extension>
          <use value="official"/>
          <type>
            <coding>
              <system value="http://terminology.hl7.org/CodeSystem/v2-0203"/>
              <code value="NPI"/>
              <display value="National provider identifier"/>
            </coding>
            <text value="NPI"/>
          </type>
          <system value="http://hl7.org/fhir/sid/us-npi"/>
          <value value="9990050000"/>
          <period>
            <start value="2004-04-21T11:57:00-05:00"/>
          </period>
          <assigner>
            <display value="Centers for Medicare and Medicaid Services"/>
          </assigner>
        </identifier>
        <active value="true"/>
        <type>
          <coding>
            <system value="http://terminology.hl7.org/CodeSystem/organization-type"/>
            <code value="prov"/>
            <display value="HealthCare Provider"/>
          </coding>
          <text value="HealthCare Provider"/>
        </type>
        <name value="Hartford Connecticut HIE"/>
        <telecom>
          <system value="phone"/>
          <value value="9595555555"/>
        </telecom>
        <address>
          <extension url="http://hl7.org/fhir/StructureDefinition/geolocation">
            <extension url="latitude">
              <valueDecimal value="41.78007"/>
            </extension>
            <extension url="longitude">
              <valueDecimal value="-72.677099"/>
            </extension>
          </extension>
          <use value="work"/>
          <type value="both"/>
          <text value="221 Trumbull Street, Hartford, CT 6101"/>
          <line value="221 Trumbull Street"/>
          <city value="Hartford"/>
          <state value="CT"/>
          <postalCode value="6101"/>
          <country value="USA"/>
        </address>
        <contact>
          <purpose>
            <coding>
              <system value="http://terminology.hl7.org/CodeSystem/contactentity-type"/>
              <code value="ADMIN"/>
              <display value="Administrative"/>
            </coding>
          </purpose>
          <name>
            <use value="official"/>
            <text value="Kathy Contact"/>
            <family value="Contact"/>
            <given value="Kathy"/>
          </name>
          <telecom>
            <extension url="http://hl7.org/fhir/uv/vhdir/StructureDefinition/contactpoint-availabletime">
              <extension url="daysOfWeek">
                <valueCode value="mon"/>
              </extension>
              <extension url="daysOfWeek">
                <valueCode value="tue"/>
              </extension>
              <extension url="daysOfWeek">
                <valueCode value="wed"/>
              </extension>
              <extension url="daysOfWeek">
                <valueCode value="thu"/>
              </extension>
              <extension url="daysOfWeek">
                <valueCode value="fri"/>
              </extension>
              <extension url="availableStartTime">
                <valueTime value="07:00:00"/>
              </extension>
              <extension url="availableEndTime">
                <valueTime value="18:00:00"/>
              </extension>
            </extension>
            <system value="phone"/>
            <value value="9595555555"/>
            <use value="work"/>
          </telecom>
        </contact>
        <endpoint>
          <reference value="Endpoint/vhdir-managing-org-9990050000-direct"/>
          <display value="Hartford Connecticut HIE Direct address"/>
        </endpoint>
      </Organization>
    </resource>
    <request>
      <method value="PUT"/>
      <url value="Organization/vhdir-managing-org-9990050000"/>
    </request>
  </entry>
  <entry>
    <fullUrl value="http://vhdir-demo.fhir.org/fhir/Organization/vhdir-managing-org-9990060000"/>
    <resource>
      <Organization>
        <id value="vhdir-managing-org-9990060000"/>
        <meta>
          <profile value="http://hl7.org/fhir/uv/vhdir/StructureDefinition/vhdir-organization"/>
        </meta>
        <identifier>
          <extension url="http://hl7.org/fhir/uv/vhdir/StructureDefinition/identifier-status">
            <valueCode value="active"/>
          </extension>
          <use value="official"/>
          <type>
            <coding>
              <system value="http://terminology.hl7.org/CodeSystem/v2-0203"/>
              <code value="NPI"/>
              <display value="National provider identifier"/>
            </coding>
            <text value="NPI"/>
          </type>
          <system value="http://hl7.org/fhir/sid/us-npi"/>
          <value value="9990060000"/>
          <period>
            <start value="2004-04-21T11:57:00-05:00"/>
          </period>
          <assigner>
            <display value="Centers for Medicare and Medicaid Services"/>
          </assigner>
        </identifier>
        <active value="true"/>
        <type>
          <coding>
            <system value="http://terminology.hl7.org/CodeSystem/organization-type"/>
            <code value="prov"/>
            <display value="HealthCare Provider"/>
          </coding>
          <text value="HealthCare Provider"/>
        </type>
        <name value="Rhode Island HIE"/>
        <telecom>
          <system value="phone"/>
          <value value="4015555555"/>
        </telecom>
        <address>
          <extension url="http://hl7.org/fhir/StructureDefinition/geolocation">
            <extension url="latitude">
              <valueDecimal value="41.82275"/>
            </extension>
            <extension url="longitude">
              <valueDecimal value="-71.414451"/>
            </extension>
          </extension>
          <use value="work"/>
          <type value="both"/>
          <text value="0 Holden Street, Suite 300, Providence, RI 2901"/>
          <line value="0 Holden Street, Suite 300"/>
          <city value="Providence"/>
          <state value="RI"/>
          <postalCode value="2901"/>
          <country value="USA"/>
        </address>
        <contact>
          <purpose>
            <coding>
              <system value="http://terminology.hl7.org/CodeSystem/contactentity-type"/>
              <code value="ADMIN"/>
              <display value="Administrative"/>
            </coding>
          </purpose>
          <name>
            <use value="official"/>
            <text value="Kathy Contact"/>
            <family value="Contact"/>
            <given value="Kathy"/>
          </name>
          <telecom>
            <extension url="http://hl7.org/fhir/uv/vhdir/StructureDefinition/contactpoint-availabletime">
              <extension url="daysOfWeek">
                <valueCode value="mon"/>
              </extension>
              <extension url="daysOfWeek">
                <valueCode value="tue"/>
              </extension>
              <extension url="daysOfWeek">
                <valueCode value="wed"/>
              </extension>
              <extension url="daysOfWeek">
                <valueCode value="thu"/>
              </extension>
              <extension url="daysOfWeek">
                <valueCode value="fri"/>
              </extension>
              <extension url="availableStartTime">
                <valueTime value="07:00:00"/>
              </extension>
              <extension url="availableEndTime">
                <valueTime value="18:00:00"/>
              </extension>
            </extension>
            <system value="phone"/>
            <value value="4015555555"/>
            <use value="work"/>
          </telecom>
        </contact>
        <endpoint>
          <reference value="Endpoint/vhdir-managing-org-9990060000-direct"/>
          <display value="Rhode Island HIE Direct address"/>
        </endpoint>
      </Organization>
    </resource>
    <request>
      <method value="PUT"/>
      <url value="Organization/vhdir-managing-org-9990060000"/>
    </request>
  </entry>
  <entry>
    <fullUrl value="http://vhdir-demo.fhir.org/fhir/Organization/vhdir-managing-org-9990070000"/>
    <resource>
      <Organization>
        <id value="vhdir-managing-org-9990070000"/>
        <meta>
          <profile value="http://hl7.org/fhir/uv/vhdir/StructureDefinition/vhdir-organization"/>
        </meta>
        <identifier>
          <extension url="http://hl7.org/fhir/uv/vhdir/StructureDefinition/identifier-status">
            <valueCode value="active"/>
          </extension>
          <use value="official"/>
          <type>
            <coding>
              <system value="http://terminology.hl7.org/CodeSystem/v2-0203"/>
              <code value="NPI"/>
              <display value="National provider identifier"/>
            </coding>
            <text value="NPI"/>
          </type>
          <system value="http://hl7.org/fhir/sid/us-npi"/>
          <value value="9990070000"/>
          <period>
            <start value="2004-04-21T11:57:00-05:00"/>
          </period>
          <assigner>
            <display value="Centers for Medicare and Medicaid Services"/>
          </assigner>
        </identifier>
        <active value="true"/>
        <type>
          <coding>
            <system value="http://terminology.hl7.org/CodeSystem/organization-type"/>
            <code value="pay"/>
            <display value="Payer"/>
          </coding>
          <text value="Payer"/>
        </type>
        <name value="Group Insurance Commission"/>
        <telecom>
          <system value="phone"/>
          <value value="6177272310"/>
        </telecom>
        <address>
          <extension url="http://hl7.org/fhir/StructureDefinition/geolocation">
            <extension url="latitude">
              <valueDecimal value="42.345079"/>
            </extension>
            <extension url="longitude">
              <valueDecimal value="-71.107653"/>
            </extension>
          </extension>
          <use value="work"/>
          <type value="both"/>
          <text value="19 Stanford St, Boston, MA 2215"/>
          <line value="19 Stanford St"/>
          <city value="Boston"/>
          <state value="MA"/>
          <postalCode value="2215"/>
          <country value="USA"/>
        </address>
        <contact>
          <purpose>
            <coding>
              <system value="http://terminology.hl7.org/CodeSystem/contactentity-type"/>
              <code value="ADMIN"/>
              <display value="Administrative"/>
            </coding>
          </purpose>
          <name>
            <use value="official"/>
            <text value="Kathy Contact"/>
            <family value="Contact"/>
            <given value="Kathy"/>
          </name>
          <telecom>
            <extension url="http://hl7.org/fhir/uv/vhdir/StructureDefinition/contactpoint-availabletime">
              <extension url="daysOfWeek">
                <valueCode value="mon"/>
              </extension>
              <extension url="daysOfWeek">
                <valueCode value="tue"/>
              </extension>
              <extension url="daysOfWeek">
                <valueCode value="wed"/>
              </extension>
              <extension url="daysOfWeek">
                <valueCode value="thu"/>
              </extension>
              <extension url="daysOfWeek">
                <valueCode value="fri"/>
              </extension>
              <extension url="availableStartTime">
                <valueTime value="07:00:00"/>
              </extension>
              <extension url="availableEndTime">
                <valueTime value="18:00:00"/>
              </extension>
            </extension>
            <system value="phone"/>
            <value value="6177272310"/>
            <use value="work"/>
          </telecom>
        </contact>
        <endpoint>
          <reference value="Endpoint/vhdir-managing-org-9990070000-direct"/>
          <display value="Group Insurance Commission Direct address"/>
        </endpoint>
      </Organization>
    </resource>
    <request>
      <method value="PUT"/>
      <url value="Organization/vhdir-managing-org-9990070000"/>
    </request>
  </entry>
  <entry>
    <fullUrl value="http://vhdir-demo.fhir.org/fhir/Organization/vhdir-managing-org-9990080000"/>
    <resource>
      <Organization>
        <id value="vhdir-managing-org-9990080000"/>
        <meta>
          <profile value="http://hl7.org/fhir/uv/vhdir/StructureDefinition/vhdir-organization"/>
        </meta>
        <identifier>
          <extension url="http://hl7.org/fhir/uv/vhdir/StructureDefinition/identifier-status">
            <valueCode value="active"/>
          </extension>
          <use value="official"/>
          <type>
            <coding>
              <system value="http://terminology.hl7.org/CodeSystem/v2-0203"/>
              <code value="NPI"/>
              <display value="National provider identifier"/>
            </coding>
            <text value="NPI"/>
          </type>
          <system value="http://hl7.org/fhir/sid/us-npi"/>
          <value value="9990080000"/>
          <period>
            <start value="2004-04-21T11:57:00-05:00"/>
          </period>
          <assigner>
            <display value="Centers for Medicare and Medicaid Services"/>
          </assigner>
        </identifier>
        <active value="true"/>
        <type>
          <coding>
            <system value="http://terminology.hl7.org/CodeSystem/organization-type"/>
            <code value="pay"/>
            <display value="Payer"/>
          </coding>
          <text value="Payer"/>
        </type>
        <name value="Connecticut Office of the State Comptroller"/>
        <telecom>
          <system value="phone"/>
          <value value="8607023300"/>
        </telecom>
        <address>
          <extension url="http://hl7.org/fhir/StructureDefinition/geolocation">
            <extension url="latitude">
              <valueDecimal value="41.745049"/>
            </extension>
            <extension url="longitude">
              <valueDecimal value="-72.687787"/>
            </extension>
          </extension>
          <use value="work"/>
          <type value="both"/>
          <text value="55 Elm Street , Hartford, CT 6106"/>
          <line value="55 Elm Street "/>
          <city value="Hartford"/>
          <state value="CT"/>
          <postalCode value="6106"/>
          <country value="USA"/>
        </address>
        <contact>
          <purpose>
            <coding>
              <system value="http://terminology.hl7.org/CodeSystem/contactentity-type"/>
              <code value="ADMIN"/>
              <display value="Administrative"/>
            </coding>
          </purpose>
          <name>
            <use value="official"/>
            <text value="Kathy Contact"/>
            <family value="Contact"/>
            <given value="Kathy"/>
          </name>
          <telecom>
            <extension url="http://hl7.org/fhir/uv/vhdir/StructureDefinition/contactpoint-availabletime">
              <extension url="daysOfWeek">
                <valueCode value="mon"/>
              </extension>
              <extension url="daysOfWeek">
                <valueCode value="tue"/>
              </extension>
              <extension url="daysOfWeek">
                <valueCode value="wed"/>
              </extension>
              <extension url="daysOfWeek">
                <valueCode value="thu"/>
              </extension>
              <extension url="daysOfWeek">
                <valueCode value="fri"/>
              </extension>
              <extension url="availableStartTime">
                <valueTime value="07:00:00"/>
              </extension>
              <extension url="availableEndTime">
                <valueTime value="18:00:00"/>
              </extension>
            </extension>
            <system value="phone"/>
            <value value="8607023300"/>
            <use value="work"/>
          </telecom>
        </contact>
        <endpoint>
          <reference value="Endpoint/vhdir-managing-org-9990080000-direct"/>
          <display value="Connecticut Office of the State Comptroller Direct address"/>
        </endpoint>
      </Organization>
    </resource>
    <request>
      <method value="PUT"/>
      <url value="Organization/vhdir-managing-org-9990080000"/>
    </request>
  </entry>
  <entry>
    <fullUrl value="http://vhdir-demo.fhir.org/fhir/Organization/vhdir-managing-org-9990090000"/>
    <resource>
      <Organization>
        <id value="vhdir-managing-org-9990090000"/>
        <meta>
          <profile value="http://hl7.org/fhir/uv/vhdir/StructureDefinition/vhdir-organization"/>
        </meta>
        <identifier>
          <extension url="http://hl7.org/fhir/uv/vhdir/StructureDefinition/identifier-status">
            <valueCode value="active"/>
          </extension>
          <use value="official"/>
          <type>
            <coding>
              <system value="http://terminology.hl7.org/CodeSystem/v2-0203"/>
              <code value="NPI"/>
              <display value="National provider identifier"/>
            </coding>
            <text value="NPI"/>
          </type>
          <system value="http://hl7.org/fhir/sid/us-npi"/>
          <value value="9990090000"/>
          <period>
            <start value="2004-04-21T11:57:00-05:00"/>
          </period>
          <assigner>
            <display value="Centers for Medicare and Medicaid Services"/>
          </assigner>
        </identifier>
        <active value="true"/>
        <type>
          <coding>
            <system value="http://terminology.hl7.org/CodeSystem/organization-type"/>
            <code value="pay"/>
            <display value="Payer"/>
          </coding>
          <text value="Payer"/>
        </type>
        <name value="Office of Employee Benefits"/>
        <telecom>
          <system value="phone"/>
          <value value="4015748530"/>
        </telecom>
        <address>
          <extension url="http://hl7.org/fhir/StructureDefinition/geolocation">
            <extension url="latitude">
              <valueDecimal value="41.837399"/>
            </extension>
            <extension url="longitude">
              <valueDecimal value="-71.4399"/>
            </extension>
          </extension>
          <use value="work"/>
          <type value="both"/>
          <text value="One Capitol Hill, 3rd Floor, Providence, RI 2908"/>
          <line value="One Capitol Hill, 3rd Floor"/>
          <city value="Providence"/>
          <state value="RI"/>
          <postalCode value="2908"/>
          <country value="USA"/>
        </address>
        <contact>
          <purpose>
            <coding>
              <system value="http://terminology.hl7.org/CodeSystem/contactentity-type"/>
              <code value="ADMIN"/>
              <display value="Administrative"/>
            </coding>
          </purpose>
          <name>
            <use value="official"/>
            <text value="Kathy Contact"/>
            <family value="Contact"/>
            <given value="Kathy"/>
          </name>
          <telecom>
            <extension url="http://hl7.org/fhir/uv/vhdir/StructureDefinition/contactpoint-availabletime">
              <extension url="daysOfWeek">
                <valueCode value="mon"/>
              </extension>
              <extension url="daysOfWeek">
                <valueCode value="tue"/>
              </extension>
              <extension url="daysOfWeek">
                <valueCode value="wed"/>
              </extension>
              <extension url="daysOfWeek">
                <valueCode value="thu"/>
              </extension>
              <extension url="daysOfWeek">
                <valueCode value="fri"/>
              </extension>
              <extension url="availableStartTime">
                <valueTime value="07:00:00"/>
              </extension>
              <extension url="availableEndTime">
                <valueTime value="18:00:00"/>
              </extension>
            </extension>
            <system value="phone"/>
            <value value="4015748530"/>
            <use value="work"/>
          </telecom>
        </contact>
        <endpoint>
          <reference value="Endpoint/vhdir-managing-org-9990090000-direct"/>
          <display value="Office of Employee Benefits Direct address"/>
        </endpoint>
      </Organization>
    </resource>
    <request>
      <method value="PUT"/>
      <url value="Organization/vhdir-managing-org-9990090000"/>
    </request>
  </entry>
  <entry>
    <fullUrl value="http://vhdir-demo.fhir.org/fhir/Organization/vhdir-managing-org-9990110000"/>
    <resource>
      <Organization>
        <id value="vhdir-managing-org-9990110000"/>
        <meta>
          <profile value="http://hl7.org/fhir/uv/vhdir/StructureDefinition/vhdir-organization"/>
        </meta>
        <identifier>
          <extension url="http://hl7.org/fhir/uv/vhdir/StructureDefinition/identifier-status">
            <valueCode value="active"/>
          </extension>
          <use value="official"/>
          <type>
            <coding>
              <system value="http://terminology.hl7.org/CodeSystem/v2-0203"/>
              <code value="NPI"/>
              <display value="National provider identifier"/>
            </coding>
            <text value="NPI"/>
          </type>
          <system value="http://hl7.org/fhir/sid/us-npi"/>
          <value value="9990110000"/>
          <period>
            <start value="2004-04-21T11:57:00-05:00"/>
          </period>
          <assigner>
            <display value="Centers for Medicare and Medicaid Services"/>
          </assigner>
        </identifier>
        <active value="true"/>
        <type>
          <coding>
            <system value="http://terminology.hl7.org/CodeSystem/organization-type"/>
            <code value="pay"/>
            <display value="Payer"/>
          </coding>
          <text value="Payer"/>
        </type>
        <name value="United Technologies Health Insurance"/>
        <telecom>
          <system value="phone"/>
          <value value="8607287000"/>
        </telecom>
        <address>
          <extension url="http://hl7.org/fhir/StructureDefinition/geolocation">
            <extension url="latitude">
              <valueDecimal value="41.726769"/>
            </extension>
            <extension url="longitude">
              <valueDecimal value="-72.829543"/>
            </extension>
          </extension>
          <use value="work"/>
          <type value="both"/>
          <text value="10 Farm Springs Rd., Farmington, CT 6032"/>
          <line value="10 Farm Springs Rd."/>
          <city value="Farmington"/>
          <state value="CT"/>
          <postalCode value="6032"/>
          <country value="USA"/>
        </address>
        <contact>
          <purpose>
            <coding>
              <system value="http://terminology.hl7.org/CodeSystem/contactentity-type"/>
              <code value="ADMIN"/>
              <display value="Administrative"/>
            </coding>
          </purpose>
          <name>
            <use value="official"/>
            <text value="Kathy Contact"/>
            <family value="Contact"/>
            <given value="Kathy"/>
          </name>
          <telecom>
            <extension url="http://hl7.org/fhir/uv/vhdir/StructureDefinition/contactpoint-availabletime">
              <extension url="daysOfWeek">
                <valueCode value="mon"/>
              </extension>
              <extension url="daysOfWeek">
                <valueCode value="tue"/>
              </extension>
              <extension url="daysOfWeek">
                <valueCode value="wed"/>
              </extension>
              <extension url="daysOfWeek">
                <valueCode value="thu"/>
              </extension>
              <extension url="daysOfWeek">
                <valueCode value="fri"/>
              </extension>
              <extension url="availableStartTime">
                <valueTime value="07:00:00"/>
              </extension>
              <extension url="availableEndTime">
                <valueTime value="18:00:00"/>
              </extension>
            </extension>
            <system value="phone"/>
            <value value="8607287000"/>
            <use value="work"/>
          </telecom>
        </contact>
        <endpoint>
          <reference value="Endpoint/vhdir-managing-org-9990110000-direct"/>
          <display value="United Technologies Health Insurance Direct address"/>
        </endpoint>
      </Organization>
    </resource>
    <request>
      <method value="PUT"/>
      <url value="Organization/vhdir-managing-org-9990110000"/>
    </request>
  </entry>
  <entry>
    <fullUrl value="http://vhdir-demo.fhir.org/fhir/Organization/vhdir-managing-org-9990120000"/>
    <resource>
      <Organization>
        <id value="vhdir-managing-org-9990120000"/>
        <meta>
          <profile value="http://hl7.org/fhir/uv/vhdir/StructureDefinition/vhdir-organization"/>
        </meta>
        <identifier>
          <extension url="http://hl7.org/fhir/uv/vhdir/StructureDefinition/identifier-status">
            <valueCode value="active"/>
          </extension>
          <use value="official"/>
          <type>
            <coding>
              <system value="http://terminology.hl7.org/CodeSystem/v2-0203"/>
              <code value="NPI"/>
              <display value="National provider identifier"/>
            </coding>
            <text value="NPI"/>
          </type>
          <system value="http://hl7.org/fhir/sid/us-npi"/>
          <value value="9990120000"/>
          <period>
            <start value="2004-04-21T11:57:00-05:00"/>
          </period>
          <assigner>
            <display value="Centers for Medicare and Medicaid Services"/>
          </assigner>
        </identifier>
        <active value="true"/>
        <type>
          <coding>
            <system value="http://terminology.hl7.org/CodeSystem/organization-type"/>
            <code value="ins"/>
            <display value="Insurance Company"/>
          </coding>
          <text value="Insurance Company"/>
        </type>
        <name value="Acme Insurance Co of Massachusetts"/>
        <telecom>
          <system value="phone"/>
          <value value="6075555555"/>
        </telecom>
        <address>
          <extension url="http://hl7.org/fhir/StructureDefinition/geolocation">
            <extension url="latitude">
              <valueDecimal value="42.370567"/>
            </extension>
            <extension url="longitude">
              <valueDecimal value="-71.026964"/>
            </extension>
          </extension>
          <use value="work"/>
          <type value="both"/>
          <text value="120 St James Ave, Boston, MA 2101"/>
          <line value="120 St James Ave"/>
          <city value="Boston"/>
          <state value="MA"/>
          <postalCode value="2101"/>
          <country value="USA"/>
        </address>
        <partOf>
          <reference value="Organization/vhdir-managing-org-9990210000"/>
          <display value="Acme Insurance Co"/>
        </partOf>
        <contact>
          <purpose>
            <coding>
              <system value="http://terminology.hl7.org/CodeSystem/contactentity-type"/>
              <code value="ADMIN"/>
              <display value="Administrative"/>
            </coding>
          </purpose>
          <name>
            <use value="official"/>
            <text value="Kathy Contact"/>
            <family value="Contact"/>
            <given value="Kathy"/>
          </name>
          <telecom>
            <extension url="http://hl7.org/fhir/uv/vhdir/StructureDefinition/contactpoint-availabletime">
              <extension url="daysOfWeek">
                <valueCode value="mon"/>
              </extension>
              <extension url="daysOfWeek">
                <valueCode value="tue"/>
              </extension>
              <extension url="daysOfWeek">
                <valueCode value="wed"/>
              </extension>
              <extension url="daysOfWeek">
                <valueCode value="thu"/>
              </extension>
              <extension url="daysOfWeek">
                <valueCode value="fri"/>
              </extension>
              <extension url="availableStartTime">
                <valueTime value="07:00:00"/>
              </extension>
              <extension url="availableEndTime">
                <valueTime value="18:00:00"/>
              </extension>
            </extension>
            <system value="phone"/>
            <value value="6075555555"/>
            <use value="work"/>
          </telecom>
        </contact>
        <endpoint>
          <reference value="Endpoint/vhdir-managing-org-9990120000-direct"/>
          <display value="Acme Insurance Co of Massachusetts Direct address"/>
        </endpoint>
      </Organization>
    </resource>
    <request>
      <method value="PUT"/>
      <url value="Organization/vhdir-managing-org-9990120000"/>
    </request>
  </entry>
  <entry>
    <fullUrl value="http://vhdir-demo.fhir.org/fhir/Organization/vhdir-managing-org-9990130000"/>
    <resource>
      <Organization>
        <id value="vhdir-managing-org-9990130000"/>
        <meta>
          <profile value="http://hl7.org/fhir/uv/vhdir/StructureDefinition/vhdir-organization"/>
        </meta>
        <identifier>
          <extension url="http://hl7.org/fhir/uv/vhdir/StructureDefinition/identifier-status">
            <valueCode value="active"/>
          </extension>
          <use value="official"/>
          <type>
            <coding>
              <system value="http://terminology.hl7.org/CodeSystem/v2-0203"/>
              <code value="NPI"/>
              <display value="National provider identifier"/>
            </coding>
            <text value="NPI"/>
          </type>
          <system value="http://hl7.org/fhir/sid/us-npi"/>
          <value value="9990130000"/>
          <period>
            <start value="2004-04-21T11:57:00-05:00"/>
          </period>
          <assigner>
            <display value="Centers for Medicare and Medicaid Services"/>
          </assigner>
        </identifier>
        <active value="true"/>
        <type>
          <coding>
            <system value="http://terminology.hl7.org/CodeSystem/organization-type"/>
            <code value="ins"/>
            <display value="Insurance Company"/>
          </coding>
          <text value="Insurance Company"/>
        </type>
        <name value="Green Circle of Massachusetts"/>
        <telecom>
          <system value="phone"/>
          <value value="6075555555"/>
        </telecom>
        <address>
          <extension url="http://hl7.org/fhir/StructureDefinition/geolocation">
            <extension url="latitude">
              <valueDecimal value="42.370567"/>
            </extension>
            <extension url="longitude">
              <valueDecimal value="-71.026964"/>
            </extension>
          </extension>
          <use value="work"/>
          <type value="both"/>
          <text value="800 Washington St, Boston, MA 2101"/>
          <line value="800 Washington St"/>
          <city value="Boston"/>
          <state value="MA"/>
          <postalCode value="2101"/>
          <country value="USA"/>
        </address>
        <partOf>
          <reference value="Organization/vhdir-managing-org-9990220000"/>
          <display value="Green Circle Ins"/>
        </partOf>
        <contact>
          <purpose>
            <coding>
              <system value="http://terminology.hl7.org/CodeSystem/contactentity-type"/>
              <code value="ADMIN"/>
              <display value="Administrative"/>
            </coding>
          </purpose>
          <name>
            <use value="official"/>
            <text value="Kathy Contact"/>
            <family value="Contact"/>
            <given value="Kathy"/>
          </name>
          <telecom>
            <extension url="http://hl7.org/fhir/uv/vhdir/StructureDefinition/contactpoint-availabletime">
              <extension url="daysOfWeek">
                <valueCode value="mon"/>
              </extension>
              <extension url="daysOfWeek">
                <valueCode value="tue"/>
              </extension>
              <extension url="daysOfWeek">
                <valueCode value="wed"/>
              </extension>
              <extension url="daysOfWeek">
                <valueCode value="thu"/>
              </extension>
              <extension url="daysOfWeek">
                <valueCode value="fri"/>
              </extension>
              <extension url="availableStartTime">
                <valueTime value="07:00:00"/>
              </extension>
              <extension url="availableEndTime">
                <valueTime value="18:00:00"/>
              </extension>
            </extension>
            <system value="phone"/>
            <value value="6075555555"/>
            <use value="work"/>
          </telecom>
        </contact>
        <endpoint>
          <reference value="Endpoint/vhdir-managing-org-9990130000-direct"/>
          <display value="Green Circle of Massachusetts Direct address"/>
        </endpoint>
      </Organization>
    </resource>
    <request>
      <method value="PUT"/>
      <url value="Organization/vhdir-managing-org-9990130000"/>
    </request>
  </entry>
  <entry>
    <fullUrl value="http://vhdir-demo.fhir.org/fhir/Organization/vhdir-managing-org-9990140000"/>
    <resource>
      <Organization>
        <id value="vhdir-managing-org-9990140000"/>
        <meta>
          <profile value="http://hl7.org/fhir/uv/vhdir/StructureDefinition/vhdir-organization"/>
        </meta>
        <identifier>
          <extension url="http://hl7.org/fhir/uv/vhdir/StructureDefinition/identifier-status">
            <valueCode value="active"/>
          </extension>
          <use value="official"/>
          <type>
            <coding>
              <system value="http://terminology.hl7.org/CodeSystem/v2-0203"/>
              <code value="NPI"/>
              <display value="National provider identifier"/>
            </coding>
            <text value="NPI"/>
          </type>
          <system value="http://hl7.org/fhir/sid/us-npi"/>
          <value value="9990140000"/>
          <period>
            <start value="2004-04-21T11:57:00-05:00"/>
          </period>
          <assigner>
            <display value="Centers for Medicare and Medicaid Services"/>
          </assigner>
        </identifier>
        <active value="true"/>
        <type>
          <coding>
            <system value="http://terminology.hl7.org/CodeSystem/organization-type"/>
            <code value="ins"/>
            <display value="Insurance Company"/>
          </coding>
          <text value="Insurance Company"/>
        </type>
        <name value="Persona of Massachusetts"/>
        <telecom>
          <system value="phone"/>
          <value value="6075555555"/>
        </telecom>
        <address>
          <extension url="http://hl7.org/fhir/StructureDefinition/geolocation">
            <extension url="latitude">
              <valueDecimal value="42.370567"/>
            </extension>
            <extension url="longitude">
              <valueDecimal value="-71.026964"/>
            </extension>
          </extension>
          <use value="work"/>
          <type value="both"/>
          <text value="120 Royall St, Boston, MA 2101"/>
          <line value="120 Royall St"/>
          <city value="Boston"/>
          <state value="MA"/>
          <postalCode value="2101"/>
          <country value="USA"/>
        </address>
        <partOf>
          <reference value="Organization/vhdir-managing-org-9990230000"/>
          <display value="Persona"/>
        </partOf>
        <contact>
          <purpose>
            <coding>
              <system value="http://terminology.hl7.org/CodeSystem/contactentity-type"/>
              <code value="ADMIN"/>
              <display value="Administrative"/>
            </coding>
          </purpose>
          <name>
            <use value="official"/>
            <text value="Kathy Contact"/>
            <family value="Contact"/>
            <given value="Kathy"/>
          </name>
          <telecom>
            <extension url="http://hl7.org/fhir/uv/vhdir/StructureDefinition/contactpoint-availabletime">
              <extension url="daysOfWeek">
                <valueCode value="mon"/>
              </extension>
              <extension url="daysOfWeek">
                <valueCode value="tue"/>
              </extension>
              <extension url="daysOfWeek">
                <valueCode value="wed"/>
              </extension>
              <extension url="daysOfWeek">
                <valueCode value="thu"/>
              </extension>
              <extension url="daysOfWeek">
                <valueCode value="fri"/>
              </extension>
              <extension url="availableStartTime">
                <valueTime value="07:00:00"/>
              </extension>
              <extension url="availableEndTime">
                <valueTime value="18:00:00"/>
              </extension>
            </extension>
            <system value="phone"/>
            <value value="6075555555"/>
            <use value="work"/>
          </telecom>
        </contact>
        <endpoint>
          <reference value="Endpoint/vhdir-managing-org-9990140000-direct"/>
          <display value="Persona of Massachusetts Direct address"/>
        </endpoint>
      </Organization>
    </resource>
    <request>
      <method value="PUT"/>
      <url value="Organization/vhdir-managing-org-9990140000"/>
    </request>
  </entry>
  <entry>
    <fullUrl value="http://vhdir-demo.fhir.org/fhir/Organization/vhdir-managing-org-9990150000"/>
    <resource>
      <Organization>
        <id value="vhdir-managing-org-9990150000"/>
        <meta>
          <profile value="http://hl7.org/fhir/uv/vhdir/StructureDefinition/vhdir-organization"/>
        </meta>
        <identifier>
          <extension url="http://hl7.org/fhir/uv/vhdir/StructureDefinition/identifier-status">
            <valueCode value="active"/>
          </extension>
          <use value="official"/>
          <type>
            <coding>
              <system value="http://terminology.hl7.org/CodeSystem/v2-0203"/>
              <code value="NPI"/>
              <display value="National provider identifier"/>
            </coding>
            <text value="NPI"/>
          </type>
          <system value="http://hl7.org/fhir/sid/us-npi"/>
          <value value="9990150000"/>
          <period>
            <start value="2004-04-21T11:57:00-05:00"/>
          </period>
          <assigner>
            <display value="Centers for Medicare and Medicaid Services"/>
          </assigner>
        </identifier>
        <active value="true"/>
        <type>
          <coding>
            <system value="http://terminology.hl7.org/CodeSystem/organization-type"/>
            <code value="ins"/>
            <display value="Insurance Company"/>
          </coding>
          <text value="Insurance Company"/>
        </type>
        <name value="Acme Insurance Co of Connecticut"/>
        <telecom>
          <system value="phone"/>
          <value value="9595555555"/>
        </telecom>
        <address>
          <extension url="http://hl7.org/fhir/StructureDefinition/geolocation">
            <extension url="latitude">
              <valueDecimal value="41.78007"/>
            </extension>
            <extension url="longitude">
              <valueDecimal value="-72.677099"/>
            </extension>
          </extension>
          <use value="work"/>
          <type value="both"/>
          <text value="690 Asylum Avenue, Hartford, CT 6101"/>
          <line value="690 Asylum Avenue"/>
          <city value="Hartford"/>
          <state value="CT"/>
          <postalCode value="6101"/>
          <country value="USA"/>
        </address>
        <partOf>
          <reference value="Organization/vhdir-managing-org-9990210000"/>
          <display value="Acme Insurance Co"/>
        </partOf>
        <contact>
          <purpose>
            <coding>
              <system value="http://terminology.hl7.org/CodeSystem/contactentity-type"/>
              <code value="ADMIN"/>
              <display value="Administrative"/>
            </coding>
          </purpose>
          <name>
            <use value="official"/>
            <text value="Kathy Contact"/>
            <family value="Contact"/>
            <given value="Kathy"/>
          </name>
          <telecom>
            <extension url="http://hl7.org/fhir/uv/vhdir/StructureDefinition/contactpoint-availabletime">
              <extension url="daysOfWeek">
                <valueCode value="mon"/>
              </extension>
              <extension url="daysOfWeek">
                <valueCode value="tue"/>
              </extension>
              <extension url="daysOfWeek">
                <valueCode value="wed"/>
              </extension>
              <extension url="daysOfWeek">
                <valueCode value="thu"/>
              </extension>
              <extension url="daysOfWeek">
                <valueCode value="fri"/>
              </extension>
              <extension url="availableStartTime">
                <valueTime value="07:00:00"/>
              </extension>
              <extension url="availableEndTime">
                <valueTime value="18:00:00"/>
              </extension>
            </extension>
            <system value="phone"/>
            <value value="9595555555"/>
            <use value="work"/>
          </telecom>
        </contact>
        <endpoint>
          <reference value="Endpoint/vhdir-managing-org-9990150000-direct"/>
          <display value="Acme Insurance Co of Connecticut Direct address"/>
        </endpoint>
      </Organization>
    </resource>
    <request>
      <method value="PUT"/>
      <url value="Organization/vhdir-managing-org-9990150000"/>
    </request>
  </entry>
  <entry>
    <fullUrl value="http://vhdir-demo.fhir.org/fhir/Organization/vhdir-managing-org-9990160000"/>
    <resource>
      <Organization>
        <id value="vhdir-managing-org-9990160000"/>
        <meta>
          <profile value="http://hl7.org/fhir/uv/vhdir/StructureDefinition/vhdir-organization"/>
        </meta>
        <identifier>
          <extension url="http://hl7.org/fhir/uv/vhdir/StructureDefinition/identifier-status">
            <valueCode value="active"/>
          </extension>
          <use value="official"/>
          <type>
            <coding>
              <system value="http://terminology.hl7.org/CodeSystem/v2-0203"/>
              <code value="NPI"/>
              <display value="National provider identifier"/>
            </coding>
            <text value="NPI"/>
          </type>
          <system value="http://hl7.org/fhir/sid/us-npi"/>
          <value value="9990160000"/>
          <period>
            <start value="2004-04-21T11:57:00-05:00"/>
          </period>
          <assigner>
            <display value="Centers for Medicare and Medicaid Services"/>
          </assigner>
        </identifier>
        <active value="true"/>
        <type>
          <coding>
            <system value="http://terminology.hl7.org/CodeSystem/organization-type"/>
            <code value="ins"/>
            <display value="Insurance Company"/>
          </coding>
          <text value="Insurance Company"/>
        </type>
        <name value="Green Circle of Connecticut"/>
        <telecom>
          <system value="phone"/>
          <value value="9595555555"/>
        </telecom>
        <address>
          <extension url="http://hl7.org/fhir/StructureDefinition/geolocation">
            <extension url="latitude">
              <valueDecimal value="41.78007"/>
            </extension>
            <extension url="longitude">
              <valueDecimal value="-72.677099"/>
            </extension>
          </extension>
          <use value="work"/>
          <type value="both"/>
          <text value="185 Asylum Street, Hartford, CT 6101"/>
          <line value="185 Asylum Street"/>
          <city value="Hartford"/>
          <state value="CT"/>
          <postalCode value="6101"/>
          <country value="USA"/>
        </address>
        <partOf>
          <reference value="Organization/vhdir-managing-org-9990220000"/>
          <display value="Green Circle Ins"/>
        </partOf>
        <contact>
          <purpose>
            <coding>
              <system value="http://terminology.hl7.org/CodeSystem/contactentity-type"/>
              <code value="ADMIN"/>
              <display value="Administrative"/>
            </coding>
          </purpose>
          <name>
            <use value="official"/>
            <text value="Kathy Contact"/>
            <family value="Contact"/>
            <given value="Kathy"/>
          </name>
          <telecom>
            <extension url="http://hl7.org/fhir/uv/vhdir/StructureDefinition/contactpoint-availabletime">
              <extension url="daysOfWeek">
                <valueCode value="mon"/>
              </extension>
              <extension url="daysOfWeek">
                <valueCode value="tue"/>
              </extension>
              <extension url="daysOfWeek">
                <valueCode value="wed"/>
              </extension>
              <extension url="daysOfWeek">
                <valueCode value="thu"/>
              </extension>
              <extension url="daysOfWeek">
                <valueCode value="fri"/>
              </extension>
              <extension url="availableStartTime">
                <valueTime value="07:00:00"/>
              </extension>
              <extension url="availableEndTime">
                <valueTime value="18:00:00"/>
              </extension>
            </extension>
            <system value="phone"/>
            <value value="9595555555"/>
            <use value="work"/>
          </telecom>
        </contact>
        <endpoint>
          <reference value="Endpoint/vhdir-managing-org-9990160000-direct"/>
          <display value="Green Circle of Connecticut Direct address"/>
        </endpoint>
      </Organization>
    </resource>
    <request>
      <method value="PUT"/>
      <url value="Organization/vhdir-managing-org-9990160000"/>
    </request>
  </entry>
  <entry>
    <fullUrl value="http://vhdir-demo.fhir.org/fhir/Organization/vhdir-managing-org-9990170000"/>
    <resource>
      <Organization>
        <id value="vhdir-managing-org-9990170000"/>
        <meta>
          <profile value="http://hl7.org/fhir/uv/vhdir/StructureDefinition/vhdir-organization"/>
        </meta>
        <identifier>
          <extension url="http://hl7.org/fhir/uv/vhdir/StructureDefinition/identifier-status">
            <valueCode value="active"/>
          </extension>
          <use value="official"/>
          <type>
            <coding>
              <system value="http://terminology.hl7.org/CodeSystem/v2-0203"/>
              <code value="NPI"/>
              <display value="National provider identifier"/>
            </coding>
            <text value="NPI"/>
          </type>
          <system value="http://hl7.org/fhir/sid/us-npi"/>
          <value value="9990170000"/>
          <period>
            <start value="2004-04-21T11:57:00-05:00"/>
          </period>
          <assigner>
            <display value="Centers for Medicare and Medicaid Services"/>
          </assigner>
        </identifier>
        <active value="true"/>
        <type>
          <coding>
            <system value="http://terminology.hl7.org/CodeSystem/organization-type"/>
            <code value="ins"/>
            <display value="Insurance Company"/>
          </coding>
          <text value="Insurance Company"/>
        </type>
        <name value="Persona of Connecticut"/>
        <telecom>
          <system value="phone"/>
          <value value="9595555555"/>
        </telecom>
        <address>
          <extension url="http://hl7.org/fhir/StructureDefinition/geolocation">
            <extension url="latitude">
              <valueDecimal value="41.78007"/>
            </extension>
            <extension url="longitude">
              <valueDecimal value="-72.677099"/>
            </extension>
          </extension>
          <use value="work"/>
          <type value="both"/>
          <text value="27 Grove Street, Hartford, CT 6101"/>
          <line value="27 Grove Street"/>
          <city value="Hartford"/>
          <state value="CT"/>
          <postalCode value="6101"/>
          <country value="USA"/>
        </address>
        <partOf>
          <reference value="Organization/vhdir-managing-org-9990230000"/>
          <display value="Persona"/>
        </partOf>
        <contact>
          <purpose>
            <coding>
              <system value="http://terminology.hl7.org/CodeSystem/contactentity-type"/>
              <code value="ADMIN"/>
              <display value="Administrative"/>
            </coding>
          </purpose>
          <name>
            <use value="official"/>
            <text value="Kathy Contact"/>
            <family value="Contact"/>
            <given value="Kathy"/>
          </name>
          <telecom>
            <extension url="http://hl7.org/fhir/uv/vhdir/StructureDefinition/contactpoint-availabletime">
              <extension url="daysOfWeek">
                <valueCode value="mon"/>
              </extension>
              <extension url="daysOfWeek">
                <valueCode value="tue"/>
              </extension>
              <extension url="daysOfWeek">
                <valueCode value="wed"/>
              </extension>
              <extension url="daysOfWeek">
                <valueCode value="thu"/>
              </extension>
              <extension url="daysOfWeek">
                <valueCode value="fri"/>
              </extension>
              <extension url="availableStartTime">
                <valueTime value="07:00:00"/>
              </extension>
              <extension url="availableEndTime">
                <valueTime value="18:00:00"/>
              </extension>
            </extension>
            <system value="phone"/>
            <value value="9595555555"/>
            <use value="work"/>
          </telecom>
        </contact>
        <endpoint>
          <reference value="Endpoint/vhdir-managing-org-9990170000-direct"/>
          <display value="Persona of Connecticut Direct address"/>
        </endpoint>
      </Organization>
    </resource>
    <request>
      <method value="PUT"/>
      <url value="Organization/vhdir-managing-org-9990170000"/>
    </request>
  </entry>
  <entry>
    <fullUrl value="http://vhdir-demo.fhir.org/fhir/Organization/vhdir-managing-org-9990180000"/>
    <resource>
      <Organization>
        <id value="vhdir-managing-org-9990180000"/>
        <meta>
          <profile value="http://hl7.org/fhir/uv/vhdir/StructureDefinition/vhdir-organization"/>
        </meta>
        <identifier>
          <extension url="http://hl7.org/fhir/uv/vhdir/StructureDefinition/identifier-status">
            <valueCode value="active"/>
          </extension>
          <use value="official"/>
          <type>
            <coding>
              <system value="http://terminology.hl7.org/CodeSystem/v2-0203"/>
              <code value="NPI"/>
              <display value="National provider identifier"/>
            </coding>
            <text value="NPI"/>
          </type>
          <system value="http://hl7.org/fhir/sid/us-npi"/>
          <value value="9990180000"/>
          <period>
            <start value="2004-04-21T11:57:00-05:00"/>
          </period>
          <assigner>
            <display value="Centers for Medicare and Medicaid Services"/>
          </assigner>
        </identifier>
        <active value="true"/>
        <type>
          <coding>
            <system value="http://terminology.hl7.org/CodeSystem/organization-type"/>
            <code value="ins"/>
            <display value="Insurance Company"/>
          </coding>
          <text value="Insurance Company"/>
        </type>
        <name value="Acme Insurance Co of Rhode Island"/>
        <telecom>
          <system value="phone"/>
          <value value="4015555555"/>
        </telecom>
        <address>
          <extension url="http://hl7.org/fhir/StructureDefinition/geolocation">
            <extension url="latitude">
              <valueDecimal value="41.82275"/>
            </extension>
            <extension url="longitude">
              <valueDecimal value="-71.414451"/>
            </extension>
          </extension>
          <use value="work"/>
          <type value="both"/>
          <text value="111 Westminster Street, Providence, RI 2901"/>
          <line value="111 Westminster Street"/>
          <city value="Providence"/>
          <state value="RI"/>
          <postalCode value="2901"/>
          <country value="USA"/>
        </address>
        <partOf>
          <reference value="Organization/vhdir-managing-org-9990210000"/>
          <display value="Acme Insurance Co"/>
        </partOf>
        <contact>
          <purpose>
            <coding>
              <system value="http://terminology.hl7.org/CodeSystem/contactentity-type"/>
              <code value="ADMIN"/>
              <display value="Administrative"/>
            </coding>
          </purpose>
          <name>
            <use value="official"/>
            <text value="Kathy Contact"/>
            <family value="Contact"/>
            <given value="Kathy"/>
          </name>
          <telecom>
            <extension url="http://hl7.org/fhir/uv/vhdir/StructureDefinition/contactpoint-availabletime">
              <extension url="daysOfWeek">
                <valueCode value="mon"/>
              </extension>
              <extension url="daysOfWeek">
                <valueCode value="tue"/>
              </extension>
              <extension url="daysOfWeek">
                <valueCode value="wed"/>
              </extension>
              <extension url="daysOfWeek">
                <valueCode value="thu"/>
              </extension>
              <extension url="daysOfWeek">
                <valueCode value="fri"/>
              </extension>
              <extension url="availableStartTime">
                <valueTime value="07:00:00"/>
              </extension>
              <extension url="availableEndTime">
                <valueTime value="18:00:00"/>
              </extension>
            </extension>
            <system value="phone"/>
            <value value="4015555555"/>
            <use value="work"/>
          </telecom>
        </contact>
        <endpoint>
          <reference value="Endpoint/vhdir-managing-org-9990180000-direct"/>
          <display value="Acme Insurance Co of Rhode Island Direct address"/>
        </endpoint>
      </Organization>
    </resource>
    <request>
      <method value="PUT"/>
      <url value="Organization/vhdir-managing-org-9990180000"/>
    </request>
  </entry>
  <entry>
    <fullUrl value="http://vhdir-demo.fhir.org/fhir/Organization/vhdir-managing-org-9990190000"/>
    <resource>
      <Organization>
        <id value="vhdir-managing-org-9990190000"/>
        <meta>
          <profile value="http://hl7.org/fhir/uv/vhdir/StructureDefinition/vhdir-organization"/>
        </meta>
        <identifier>
          <extension url="http://hl7.org/fhir/uv/vhdir/StructureDefinition/identifier-status">
            <valueCode value="active"/>
          </extension>
          <use value="official"/>
          <type>
            <coding>
              <system value="http://terminology.hl7.org/CodeSystem/v2-0203"/>
              <code value="NPI"/>
              <display value="National provider identifier"/>
            </coding>
            <text value="NPI"/>
          </type>
          <system value="http://hl7.org/fhir/sid/us-npi"/>
          <value value="9990190000"/>
          <period>
            <start value="2004-04-21T11:57:00-05:00"/>
          </period>
          <assigner>
            <display value="Centers for Medicare and Medicaid Services"/>
          </assigner>
        </identifier>
        <active value="true"/>
        <type>
          <coding>
            <system value="http://terminology.hl7.org/CodeSystem/organization-type"/>
            <code value="ins"/>
            <display value="Insurance Company"/>
          </coding>
          <text value="Insurance Company"/>
        </type>
        <name value="Green Circle of Rhode Island"/>
        <telecom>
          <system value="phone"/>
          <value value="4015555555"/>
        </telecom>
        <address>
          <extension url="http://hl7.org/fhir/StructureDefinition/geolocation">
            <extension url="latitude">
              <valueDecimal value="41.82275"/>
            </extension>
            <extension url="longitude">
              <valueDecimal value="-71.414451"/>
            </extension>
          </extension>
          <use value="work"/>
          <type value="both"/>
          <text value="One Financial Plaza, Providence, RI 2901"/>
          <line value="One Financial Plaza"/>
          <city value="Providence"/>
          <state value="RI"/>
          <postalCode value="2901"/>
          <country value="USA"/>
        </address>
        <partOf>
          <reference value="Organization/vhdir-managing-org-9990220000"/>
          <display value="Green Circle Ins"/>
        </partOf>
        <contact>
          <purpose>
            <coding>
              <system value="http://terminology.hl7.org/CodeSystem/contactentity-type"/>
              <code value="ADMIN"/>
              <display value="Administrative"/>
            </coding>
          </purpose>
          <name>
            <use value="official"/>
            <text value="Kathy Contact"/>
            <family value="Contact"/>
            <given value="Kathy"/>
          </name>
          <telecom>
            <extension url="http://hl7.org/fhir/uv/vhdir/StructureDefinition/contactpoint-availabletime">
              <extension url="daysOfWeek">
                <valueCode value="mon"/>
              </extension>
              <extension url="daysOfWeek">
                <valueCode value="tue"/>
              </extension>
              <extension url="daysOfWeek">
                <valueCode value="wed"/>
              </extension>
              <extension url="daysOfWeek">
                <valueCode value="thu"/>
              </extension>
              <extension url="daysOfWeek">
                <valueCode value="fri"/>
              </extension>
              <extension url="availableStartTime">
                <valueTime value="07:00:00"/>
              </extension>
              <extension url="availableEndTime">
                <valueTime value="18:00:00"/>
              </extension>
            </extension>
            <system value="phone"/>
            <value value="4015555555"/>
            <use value="work"/>
          </telecom>
        </contact>
        <endpoint>
          <reference value="Endpoint/vhdir-managing-org-9990190000-direct"/>
          <display value="Green Circle of Rhode Island Direct address"/>
        </endpoint>
      </Organization>
    </resource>
    <request>
      <method value="PUT"/>
      <url value="Organization/vhdir-managing-org-9990190000"/>
    </request>
  </entry>
  <entry>
    <fullUrl value="http://vhdir-demo.fhir.org/fhir/Organization/vhdir-managing-org-9990200000"/>
    <resource>
      <Organization>
        <id value="vhdir-managing-org-9990200000"/>
        <meta>
          <profile value="http://hl7.org/fhir/uv/vhdir/StructureDefinition/vhdir-organization"/>
        </meta>
        <identifier>
          <extension url="http://hl7.org/fhir/uv/vhdir/StructureDefinition/identifier-status">
            <valueCode value="active"/>
          </extension>
          <use value="official"/>
          <type>
            <coding>
              <system value="http://terminology.hl7.org/CodeSystem/v2-0203"/>
              <code value="NPI"/>
              <display value="National provider identifier"/>
            </coding>
            <text value="NPI"/>
          </type>
          <system value="http://hl7.org/fhir/sid/us-npi"/>
          <value value="9990200000"/>
          <period>
            <start value="2004-04-21T11:57:00-05:00"/>
          </period>
          <assigner>
            <display value="Centers for Medicare and Medicaid Services"/>
          </assigner>
        </identifier>
        <active value="true"/>
        <type>
          <coding>
            <system value="http://terminology.hl7.org/CodeSystem/organization-type"/>
            <code value="ins"/>
            <display value="Insurance Company"/>
          </coding>
          <text value="Insurance Company"/>
        </type>
        <name value="Persona of Rhode Island"/>
        <telecom>
          <system value="phone"/>
          <value value="4015555555"/>
        </telecom>
        <address>
          <extension url="http://hl7.org/fhir/StructureDefinition/geolocation">
            <extension url="latitude">
              <valueDecimal value="41.82275"/>
            </extension>
            <extension url="longitude">
              <valueDecimal value="-71.414451"/>
            </extension>
          </extension>
          <use value="work"/>
          <type value="both"/>
          <text value="500 Exchange Street, Providence, RI 2901"/>
          <line value="500 Exchange Street"/>
          <city value="Providence"/>
          <state value="RI"/>
          <postalCode value="2901"/>
          <country value="USA"/>
        </address>
        <partOf>
          <reference value="Organization/vhdir-managing-org-9990230000"/>
          <display value="Persona"/>
        </partOf>
        <contact>
          <purpose>
            <coding>
              <system value="http://terminology.hl7.org/CodeSystem/contactentity-type"/>
              <code value="ADMIN"/>
              <display value="Administrative"/>
            </coding>
          </purpose>
          <name>
            <use value="official"/>
            <text value="Kathy Contact"/>
            <family value="Contact"/>
            <given value="Kathy"/>
          </name>
          <telecom>
            <extension url="http://hl7.org/fhir/uv/vhdir/StructureDefinition/contactpoint-availabletime">
              <extension url="daysOfWeek">
                <valueCode value="mon"/>
              </extension>
              <extension url="daysOfWeek">
                <valueCode value="tue"/>
              </extension>
              <extension url="daysOfWeek">
                <valueCode value="wed"/>
              </extension>
              <extension url="daysOfWeek">
                <valueCode value="thu"/>
              </extension>
              <extension url="daysOfWeek">
                <valueCode value="fri"/>
              </extension>
              <extension url="availableStartTime">
                <valueTime value="07:00:00"/>
              </extension>
              <extension url="availableEndTime">
                <valueTime value="18:00:00"/>
              </extension>
            </extension>
            <system value="phone"/>
            <value value="4015555555"/>
            <use value="work"/>
          </telecom>
        </contact>
        <endpoint>
          <reference value="Endpoint/vhdir-managing-org-9990200000-direct"/>
          <display value="Persona of Rhode Island Direct address"/>
        </endpoint>
      </Organization>
    </resource>
    <request>
      <method value="PUT"/>
      <url value="Organization/vhdir-managing-org-9990200000"/>
    </request>
  </entry>
  <entry>
    <fullUrl value="http://vhdir-demo.fhir.org/fhir/Organization/vhdir-managing-org-9990210000"/>
    <resource>
      <Organization>
        <id value="vhdir-managing-org-9990210000"/>
        <meta>
          <profile value="http://hl7.org/fhir/uv/vhdir/StructureDefinition/vhdir-organization"/>
        </meta>
        <identifier>
          <extension url="http://hl7.org/fhir/uv/vhdir/StructureDefinition/identifier-status">
            <valueCode value="active"/>
          </extension>
          <use value="official"/>
          <type>
            <coding>
              <system value="http://terminology.hl7.org/CodeSystem/v2-0203"/>
              <code value="NPI"/>
              <display value="National provider identifier"/>
            </coding>
            <text value="NPI"/>
          </type>
          <system value="http://hl7.org/fhir/sid/us-npi"/>
          <value value="9990210000"/>
          <period>
            <start value="2004-04-21T11:57:00-05:00"/>
          </period>
          <assigner>
            <display value="Centers for Medicare and Medicaid Services"/>
          </assigner>
        </identifier>
        <active value="true"/>
        <type>
          <coding>
            <system value="http://terminology.hl7.org/CodeSystem/organization-type"/>
            <code value="ins"/>
            <display value="Insurance Company"/>
          </coding>
          <text value="Insurance Company"/>
        </type>
        <name value="Acme Insurance Co"/>
        <telecom>
          <system value="phone"/>
          <value value="18885455205"/>
        </telecom>
        <address>
          <extension url="http://hl7.org/fhir/StructureDefinition/geolocation">
            <extension url="latitude">
              <valueDecimal value="44.913969"/>
            </extension>
            <extension url="longitude">
              <valueDecimal value="-93.44813"/>
            </extension>
          </extension>
          <use value="work"/>
          <type value="both"/>
          <text value="9900 Bren Road East, Minnetonka, MN 55343"/>
          <line value="9900 Bren Road East"/>
          <city value="Minnetonka"/>
          <state value="MN"/>
          <postalCode value="55343"/>
          <country value="USA"/>
        </address>
        <contact>
          <purpose>
            <coding>
              <system value="http://terminology.hl7.org/CodeSystem/contactentity-type"/>
              <code value="ADMIN"/>
              <display value="Administrative"/>
            </coding>
          </purpose>
          <name>
            <use value="official"/>
            <text value="Kathy Contact"/>
            <family value="Contact"/>
            <given value="Kathy"/>
          </name>
          <telecom>
            <extension url="http://hl7.org/fhir/uv/vhdir/StructureDefinition/contactpoint-availabletime">
              <extension url="daysOfWeek">
                <valueCode value="mon"/>
              </extension>
              <extension url="daysOfWeek">
                <valueCode value="tue"/>
              </extension>
              <extension url="daysOfWeek">
                <valueCode value="wed"/>
              </extension>
              <extension url="daysOfWeek">
                <valueCode value="thu"/>
              </extension>
              <extension url="daysOfWeek">
                <valueCode value="fri"/>
              </extension>
              <extension url="availableStartTime">
                <valueTime value="07:00:00"/>
              </extension>
              <extension url="availableEndTime">
                <valueTime value="18:00:00"/>
              </extension>
            </extension>
            <system value="phone"/>
            <value value="18885455205"/>
            <use value="work"/>
          </telecom>
        </contact>
        <endpoint>
          <reference value="Endpoint/vhdir-managing-org-9990210000-direct"/>
          <display value="Acme Insurance Co Direct address"/>
        </endpoint>
      </Organization>
    </resource>
    <request>
      <method value="PUT"/>
      <url value="Organization/vhdir-managing-org-9990210000"/>
    </request>
  </entry>
  <entry>
    <fullUrl value="http://vhdir-demo.fhir.org/fhir/Organization/vhdir-managing-org-9990220000"/>
    <resource>
      <Organization>
        <id value="vhdir-managing-org-9990220000"/>
        <meta>
          <profile value="http://hl7.org/fhir/uv/vhdir/StructureDefinition/vhdir-organization"/>
        </meta>
        <identifier>
          <extension url="http://hl7.org/fhir/uv/vhdir/StructureDefinition/identifier-status">
            <valueCode value="active"/>
          </extension>
          <use value="official"/>
          <type>
            <coding>
              <system value="http://terminology.hl7.org/CodeSystem/v2-0203"/>
              <code value="NPI"/>
              <display value="National provider identifier"/>
            </coding>
            <text value="NPI"/>
          </type>
          <system value="http://hl7.org/fhir/sid/us-npi"/>
          <value value="9990220000"/>
          <period>
            <start value="2004-04-21T11:57:00-05:00"/>
          </period>
          <assigner>
            <display value="Centers for Medicare and Medicaid Services"/>
          </assigner>
        </identifier>
        <active value="true"/>
        <type>
          <coding>
            <system value="http://terminology.hl7.org/CodeSystem/organization-type"/>
            <code value="ins"/>
            <display value="Insurance Company"/>
          </coding>
          <text value="Insurance Company"/>
        </type>
        <name value="Green Circle Ins"/>
        <telecom>
          <system value="phone"/>
          <value value="6179729400"/>
        </telecom>
        <address>
          <extension url="http://hl7.org/fhir/StructureDefinition/geolocation">
            <extension url="latitude">
              <valueDecimal value="42.293501"/>
            </extension>
            <extension url="longitude">
              <valueDecimal value="-71.925696"/>
            </extension>
          </extension>
          <use value="work"/>
          <type value="both"/>
          <text value="500 Exchange Street, Worcester, MA 1608"/>
          <line value="500 Exchange Street"/>
          <city value="Worcester"/>
          <state value="MA"/>
          <postalCode value="1608"/>
          <country value="USA"/>
        </address>
        <contact>
          <purpose>
            <coding>
              <system value="http://terminology.hl7.org/CodeSystem/contactentity-type"/>
              <code value="ADMIN"/>
              <display value="Administrative"/>
            </coding>
          </purpose>
          <name>
            <use value="official"/>
            <text value="Kathy Contact"/>
            <family value="Contact"/>
            <given value="Kathy"/>
          </name>
          <telecom>
            <extension url="http://hl7.org/fhir/uv/vhdir/StructureDefinition/contactpoint-availabletime">
              <extension url="daysOfWeek">
                <valueCode value="mon"/>
              </extension>
              <extension url="daysOfWeek">
                <valueCode value="tue"/>
              </extension>
              <extension url="daysOfWeek">
                <valueCode value="wed"/>
              </extension>
              <extension url="daysOfWeek">
                <valueCode value="thu"/>
              </extension>
              <extension url="daysOfWeek">
                <valueCode value="fri"/>
              </extension>
              <extension url="availableStartTime">
                <valueTime value="07:00:00"/>
              </extension>
              <extension url="availableEndTime">
                <valueTime value="18:00:00"/>
              </extension>
            </extension>
            <system value="phone"/>
            <value value="6179729400"/>
            <use value="work"/>
          </telecom>
        </contact>
        <endpoint>
          <reference value="Endpoint/vhdir-managing-org-9990220000-direct"/>
          <display value="Green Circle Ins Direct address"/>
        </endpoint>
      </Organization>
    </resource>
    <request>
      <method value="PUT"/>
      <url value="Organization/vhdir-managing-org-9990220000"/>
    </request>
  </entry>
  <entry>
    <fullUrl value="http://vhdir-demo.fhir.org/fhir/Organization/vhdir-managing-org-9990230000"/>
    <resource>
      <Organization>
        <id value="vhdir-managing-org-9990230000"/>
        <meta>
          <profile value="http://hl7.org/fhir/uv/vhdir/StructureDefinition/vhdir-organization"/>
        </meta>
        <identifier>
          <extension url="http://hl7.org/fhir/uv/vhdir/StructureDefinition/identifier-status">
            <valueCode value="active"/>
          </extension>
          <use value="official"/>
          <type>
            <coding>
              <system value="http://terminology.hl7.org/CodeSystem/v2-0203"/>
              <code value="NPI"/>
              <display value="National provider identifier"/>
            </coding>
            <text value="NPI"/>
          </type>
          <system value="http://hl7.org/fhir/sid/us-npi"/>
          <value value="9990230000"/>
          <period>
            <start value="2004-04-21T11:57:00-05:00"/>
          </period>
          <assigner>
            <display value="Centers for Medicare and Medicaid Services"/>
          </assigner>
        </identifier>
        <active value="true"/>
        <type>
          <coding>
            <system value="http://terminology.hl7.org/CodeSystem/organization-type"/>
            <code value="ins"/>
            <display value="Insurance Company"/>
          </coding>
          <text value="Insurance Company"/>
        </type>
        <name value="Persona"/>
        <telecom>
          <system value="phone"/>
          <value value="18004862620"/>
        </telecom>
        <address>
          <extension url="http://hl7.org/fhir/StructureDefinition/geolocation">
            <extension url="latitude">
              <valueDecimal value="38.25247"/>
            </extension>
            <extension url="longitude">
              <valueDecimal value="-85.753812"/>
            </extension>
          </extension>
          <use value="work"/>
          <type value="both"/>
          <text value="500 Exchange Street, Louisville, KY 40202"/>
          <line value="500 Exchange Street"/>
          <city value="Louisville"/>
          <state value="KY"/>
          <postalCode value="40202"/>
          <country value="USA"/>
        </address>
        <contact>
          <purpose>
            <coding>
              <system value="http://terminology.hl7.org/CodeSystem/contactentity-type"/>
              <code value="ADMIN"/>
              <display value="Administrative"/>
            </coding>
          </purpose>
          <name>
            <use value="official"/>
            <text value="Kathy Contact"/>
            <family value="Contact"/>
            <given value="Kathy"/>
          </name>
          <telecom>
            <extension url="http://hl7.org/fhir/uv/vhdir/StructureDefinition/contactpoint-availabletime">
              <extension url="daysOfWeek">
                <valueCode value="mon"/>
              </extension>
              <extension url="daysOfWeek">
                <valueCode value="tue"/>
              </extension>
              <extension url="daysOfWeek">
                <valueCode value="wed"/>
              </extension>
              <extension url="daysOfWeek">
                <valueCode value="thu"/>
              </extension>
              <extension url="daysOfWeek">
                <valueCode value="fri"/>
              </extension>
              <extension url="availableStartTime">
                <valueTime value="07:00:00"/>
              </extension>
              <extension url="availableEndTime">
                <valueTime value="18:00:00"/>
              </extension>
            </extension>
            <system value="phone"/>
            <value value="18004862620"/>
            <use value="work"/>
          </telecom>
        </contact>
        <endpoint>
          <reference value="Endpoint/vhdir-managing-org-9990230000-direct"/>
          <display value="Persona Direct address"/>
        </endpoint>
      </Organization>
    </resource>
    <request>
      <method value="PUT"/>
      <url value="Organization/vhdir-managing-org-9990230000"/>
    </request>
  </entry>
  <entry>
    <fullUrl value="http://vhdir-demo.fhir.org/fhir/Organization/vhdir-managing-org-9990120000"/>
    <resource>
      <Organization>
        <id value="vhdir-managing-org-9990120000"/>
        <meta>
          <profile value="http://hl7.org/fhir/uv/vhdir/StructureDefinition/vhdir-organization"/>
        </meta>
        <identifier>
          <extension url="http://hl7.org/fhir/uv/vhdir/StructureDefinition/identifier-status">
            <valueCode value="active"/>
          </extension>
          <use value="official"/>
          <type>
            <coding>
              <system value="http://terminology.hl7.org/CodeSystem/v2-0203"/>
              <code value="NPI"/>
              <display value="National provider identifier"/>
            </coding>
            <text value="NPI"/>
          </type>
          <system value="http://hl7.org/fhir/sid/us-npi"/>
          <value value="9990120000"/>
          <period>
            <start value="2004-04-21T11:57:00-05:00"/>
          </period>
          <assigner>
            <display value="Centers for Medicare and Medicaid Services"/>
          </assigner>
        </identifier>
        <active value="true"/>
        <type>
          <coding>
            <system value="http://terminology.hl7.org/CodeSystem/organization-type"/>
            <code value="ins"/>
            <display value="Insurance Company"/>
          </coding>
          <text value="Insurance Company"/>
        </type>
        <name value="Acme Insurance Co of Massachusetts"/>
        <telecom>
          <system value="phone"/>
          <value value="6075555555"/>
        </telecom>
        <address>
          <extension url="http://hl7.org/fhir/StructureDefinition/geolocation">
            <extension url="latitude">
              <valueDecimal value="42.370567"/>
            </extension>
            <extension url="longitude">
              <valueDecimal value="-71.026964"/>
            </extension>
          </extension>
          <use value="work"/>
          <type value="both"/>
          <text value="120 St James Ave, Boston, MA 2101"/>
          <line value="120 St James Ave"/>
          <city value="Boston"/>
          <state value="MA"/>
          <postalCode value="2101"/>
          <country value="USA"/>
        </address>
        <partOf>
          <reference value="Organization/vhdir-managing-org-9990210000"/>
          <display value="Acme Insurance Co"/>
        </partOf>
        <contact>
          <purpose>
            <coding>
              <system value="http://terminology.hl7.org/CodeSystem/contactentity-type"/>
              <code value="ADMIN"/>
              <display value="Administrative"/>
            </coding>
          </purpose>
          <name>
            <use value="official"/>
            <text value="Kathy Contact"/>
            <family value="Contact"/>
            <given value="Kathy"/>
          </name>
          <telecom>
            <extension url="http://hl7.org/fhir/uv/vhdir/StructureDefinition/contactpoint-availabletime">
              <extension url="daysOfWeek">
                <valueCode value="mon"/>
              </extension>
              <extension url="daysOfWeek">
                <valueCode value="tue"/>
              </extension>
              <extension url="daysOfWeek">
                <valueCode value="wed"/>
              </extension>
              <extension url="daysOfWeek">
                <valueCode value="thu"/>
              </extension>
              <extension url="daysOfWeek">
                <valueCode value="fri"/>
              </extension>
              <extension url="availableStartTime">
                <valueTime value="07:00:00"/>
              </extension>
              <extension url="availableEndTime">
                <valueTime value="18:00:00"/>
              </extension>
            </extension>
            <system value="phone"/>
            <value value="6075555555"/>
            <use value="work"/>
          </telecom>
        </contact>
        <endpoint>
          <reference value="Endpoint/vhdir-managing-org-9990120000-direct"/>
          <display value="Acme Insurance Co of Massachusetts Direct address"/>
        </endpoint>
      </Organization>
    </resource>
    <request>
      <method value="PUT"/>
      <url value="Organization/vhdir-managing-org-9990120000"/>
    </request>
  </entry>
  <entry>
    <fullUrl value="http://vhdir-demo.fhir.org/fhir/Organization/vhdir-managing-org-9990130000"/>
    <resource>
      <Organization>
        <id value="vhdir-managing-org-9990130000"/>
        <meta>
          <profile value="http://hl7.org/fhir/uv/vhdir/StructureDefinition/vhdir-organization"/>
        </meta>
        <identifier>
          <extension url="http://hl7.org/fhir/uv/vhdir/StructureDefinition/identifier-status">
            <valueCode value="active"/>
          </extension>
          <use value="official"/>
          <type>
            <coding>
              <system value="http://terminology.hl7.org/CodeSystem/v2-0203"/>
              <code value="NPI"/>
              <display value="National provider identifier"/>
            </coding>
            <text value="NPI"/>
          </type>
          <system value="http://hl7.org/fhir/sid/us-npi"/>
          <value value="9990130000"/>
          <period>
            <start value="2004-04-21T11:57:00-05:00"/>
          </period>
          <assigner>
            <display value="Centers for Medicare and Medicaid Services"/>
          </assigner>
        </identifier>
        <active value="true"/>
        <type>
          <coding>
            <system value="http://terminology.hl7.org/CodeSystem/organization-type"/>
            <code value="ins"/>
            <display value="Insurance Company"/>
          </coding>
          <text value="Insurance Company"/>
        </type>
        <name value="Green Circle of Massachusetts"/>
        <telecom>
          <system value="phone"/>
          <value value="6075555555"/>
        </telecom>
        <address>
          <extension url="http://hl7.org/fhir/StructureDefinition/geolocation">
            <extension url="latitude">
              <valueDecimal value="42.370567"/>
            </extension>
            <extension url="longitude">
              <valueDecimal value="-71.026964"/>
            </extension>
          </extension>
          <use value="work"/>
          <type value="both"/>
          <text value="800 Washington St, Boston, MA 2101"/>
          <line value="800 Washington St"/>
          <city value="Boston"/>
          <state value="MA"/>
          <postalCode value="2101"/>
          <country value="USA"/>
        </address>
        <partOf>
          <reference value="Organization/vhdir-managing-org-9990220000"/>
          <display value="Green Circle Ins"/>
        </partOf>
        <contact>
          <purpose>
            <coding>
              <system value="http://terminology.hl7.org/CodeSystem/contactentity-type"/>
              <code value="ADMIN"/>
              <display value="Administrative"/>
            </coding>
          </purpose>
          <name>
            <use value="official"/>
            <text value="Kathy Contact"/>
            <family value="Contact"/>
            <given value="Kathy"/>
          </name>
          <telecom>
            <extension url="http://hl7.org/fhir/uv/vhdir/StructureDefinition/contactpoint-availabletime">
              <extension url="daysOfWeek">
                <valueCode value="mon"/>
              </extension>
              <extension url="daysOfWeek">
                <valueCode value="tue"/>
              </extension>
              <extension url="daysOfWeek">
                <valueCode value="wed"/>
              </extension>
              <extension url="daysOfWeek">
                <valueCode value="thu"/>
              </extension>
              <extension url="daysOfWeek">
                <valueCode value="fri"/>
              </extension>
              <extension url="availableStartTime">
                <valueTime value="07:00:00"/>
              </extension>
              <extension url="availableEndTime">
                <valueTime value="18:00:00"/>
              </extension>
            </extension>
            <system value="phone"/>
            <value value="6075555555"/>
            <use value="work"/>
          </telecom>
        </contact>
        <endpoint>
          <reference value="Endpoint/vhdir-managing-org-9990130000-direct"/>
          <display value="Green Circle of Massachusetts Direct address"/>
        </endpoint>
      </Organization>
    </resource>
    <request>
      <method value="PUT"/>
      <url value="Organization/vhdir-managing-org-9990130000"/>
    </request>
  </entry>
  <entry>
    <fullUrl value="http://vhdir-demo.fhir.org/fhir/Organization/vhdir-managing-org-9990140000"/>
    <resource>
      <Organization>
        <id value="vhdir-managing-org-9990140000"/>
        <meta>
          <profile value="http://hl7.org/fhir/uv/vhdir/StructureDefinition/vhdir-organization"/>
        </meta>
        <identifier>
          <extension url="http://hl7.org/fhir/uv/vhdir/StructureDefinition/identifier-status">
            <valueCode value="active"/>
          </extension>
          <use value="official"/>
          <type>
            <coding>
              <system value="http://terminology.hl7.org/CodeSystem/v2-0203"/>
              <code value="NPI"/>
              <display value="National provider identifier"/>
            </coding>
            <text value="NPI"/>
          </type>
          <system value="http://hl7.org/fhir/sid/us-npi"/>
          <value value="9990140000"/>
          <period>
            <start value="2004-04-21T11:57:00-05:00"/>
          </period>
          <assigner>
            <display value="Centers for Medicare and Medicaid Services"/>
          </assigner>
        </identifier>
        <active value="true"/>
        <type>
          <coding>
            <system value="http://terminology.hl7.org/CodeSystem/organization-type"/>
            <code value="ins"/>
            <display value="Insurance Company"/>
          </coding>
          <text value="Insurance Company"/>
        </type>
        <name value="Persona of Massachusetts"/>
        <telecom>
          <system value="phone"/>
          <value value="6075555555"/>
        </telecom>
        <address>
          <extension url="http://hl7.org/fhir/StructureDefinition/geolocation">
            <extension url="latitude">
              <valueDecimal value="42.370567"/>
            </extension>
            <extension url="longitude">
              <valueDecimal value="-71.026964"/>
            </extension>
          </extension>
          <use value="work"/>
          <type value="both"/>
          <text value="120 Royall St, Boston, MA 2101"/>
          <line value="120 Royall St"/>
          <city value="Boston"/>
          <state value="MA"/>
          <postalCode value="2101"/>
          <country value="USA"/>
        </address>
        <partOf>
          <reference value="Organization/vhdir-managing-org-9990230000"/>
          <display value="Persona"/>
        </partOf>
        <contact>
          <purpose>
            <coding>
              <system value="http://terminology.hl7.org/CodeSystem/contactentity-type"/>
              <code value="ADMIN"/>
              <display value="Administrative"/>
            </coding>
          </purpose>
          <name>
            <use value="official"/>
            <text value="Kathy Contact"/>
            <family value="Contact"/>
            <given value="Kathy"/>
          </name>
          <telecom>
            <extension url="http://hl7.org/fhir/uv/vhdir/StructureDefinition/contactpoint-availabletime">
              <extension url="daysOfWeek">
                <valueCode value="mon"/>
              </extension>
              <extension url="daysOfWeek">
                <valueCode value="tue"/>
              </extension>
              <extension url="daysOfWeek">
                <valueCode value="wed"/>
              </extension>
              <extension url="daysOfWeek">
                <valueCode value="thu"/>
              </extension>
              <extension url="daysOfWeek">
                <valueCode value="fri"/>
              </extension>
              <extension url="availableStartTime">
                <valueTime value="07:00:00"/>
              </extension>
              <extension url="availableEndTime">
                <valueTime value="18:00:00"/>
              </extension>
            </extension>
            <system value="phone"/>
            <value value="6075555555"/>
            <use value="work"/>
          </telecom>
        </contact>
        <endpoint>
          <reference value="Endpoint/vhdir-managing-org-9990140000-direct"/>
          <display value="Persona of Massachusetts Direct address"/>
        </endpoint>
      </Organization>
    </resource>
    <request>
      <method value="PUT"/>
      <url value="Organization/vhdir-managing-org-9990140000"/>
    </request>
  </entry>
  <entry>
    <fullUrl value="http://vhdir-demo.fhir.org/fhir/Organization/vhdir-managing-org-9990150000"/>
    <resource>
      <Organization>
        <id value="vhdir-managing-org-9990150000"/>
        <meta>
          <profile value="http://hl7.org/fhir/uv/vhdir/StructureDefinition/vhdir-organization"/>
        </meta>
        <identifier>
          <extension url="http://hl7.org/fhir/uv/vhdir/StructureDefinition/identifier-status">
            <valueCode value="active"/>
          </extension>
          <use value="official"/>
          <type>
            <coding>
              <system value="http://terminology.hl7.org/CodeSystem/v2-0203"/>
              <code value="NPI"/>
              <display value="National provider identifier"/>
            </coding>
            <text value="NPI"/>
          </type>
          <system value="http://hl7.org/fhir/sid/us-npi"/>
          <value value="9990150000"/>
          <period>
            <start value="2004-04-21T11:57:00-05:00"/>
          </period>
          <assigner>
            <display value="Centers for Medicare and Medicaid Services"/>
          </assigner>
        </identifier>
        <active value="true"/>
        <type>
          <coding>
            <system value="http://terminology.hl7.org/CodeSystem/organization-type"/>
            <code value="ins"/>
            <display value="Insurance Company"/>
          </coding>
          <text value="Insurance Company"/>
        </type>
        <name value="Acme Insurance Co of Connecticut"/>
        <telecom>
          <system value="phone"/>
          <value value="9595555555"/>
        </telecom>
        <address>
          <extension url="http://hl7.org/fhir/StructureDefinition/geolocation">
            <extension url="latitude">
              <valueDecimal value="41.78007"/>
            </extension>
            <extension url="longitude">
              <valueDecimal value="-72.677099"/>
            </extension>
          </extension>
          <use value="work"/>
          <type value="both"/>
          <text value="690 Asylum Avenue, Hartford, CT 6101"/>
          <line value="690 Asylum Avenue"/>
          <city value="Hartford"/>
          <state value="CT"/>
          <postalCode value="6101"/>
          <country value="USA"/>
        </address>
        <partOf>
          <reference value="Organization/vhdir-managing-org-9990210000"/>
          <display value="Acme Insurance Co"/>
        </partOf>
        <contact>
          <purpose>
            <coding>
              <system value="http://terminology.hl7.org/CodeSystem/contactentity-type"/>
              <code value="ADMIN"/>
              <display value="Administrative"/>
            </coding>
          </purpose>
          <name>
            <use value="official"/>
            <text value="Kathy Contact"/>
            <family value="Contact"/>
            <given value="Kathy"/>
          </name>
          <telecom>
            <extension url="http://hl7.org/fhir/uv/vhdir/StructureDefinition/contactpoint-availabletime">
              <extension url="daysOfWeek">
                <valueCode value="mon"/>
              </extension>
              <extension url="daysOfWeek">
                <valueCode value="tue"/>
              </extension>
              <extension url="daysOfWeek">
                <valueCode value="wed"/>
              </extension>
              <extension url="daysOfWeek">
                <valueCode value="thu"/>
              </extension>
              <extension url="daysOfWeek">
                <valueCode value="fri"/>
              </extension>
              <extension url="availableStartTime">
                <valueTime value="07:00:00"/>
              </extension>
              <extension url="availableEndTime">
                <valueTime value="18:00:00"/>
              </extension>
            </extension>
            <system value="phone"/>
            <value value="9595555555"/>
            <use value="work"/>
          </telecom>
        </contact>
        <endpoint>
          <reference value="Endpoint/vhdir-managing-org-9990150000-direct"/>
          <display value="Acme Insurance Co of Connecticut Direct address"/>
        </endpoint>
      </Organization>
    </resource>
    <request>
      <method value="PUT"/>
      <url value="Organization/vhdir-managing-org-9990150000"/>
    </request>
  </entry>
  <entry>
    <fullUrl value="http://vhdir-demo.fhir.org/fhir/Organization/vhdir-managing-org-9990160000"/>
    <resource>
      <Organization>
        <id value="vhdir-managing-org-9990160000"/>
        <meta>
          <profile value="http://hl7.org/fhir/uv/vhdir/StructureDefinition/vhdir-organization"/>
        </meta>
        <identifier>
          <extension url="http://hl7.org/fhir/uv/vhdir/StructureDefinition/identifier-status">
            <valueCode value="active"/>
          </extension>
          <use value="official"/>
          <type>
            <coding>
              <system value="http://terminology.hl7.org/CodeSystem/v2-0203"/>
              <code value="NPI"/>
              <display value="National provider identifier"/>
            </coding>
            <text value="NPI"/>
          </type>
          <system value="http://hl7.org/fhir/sid/us-npi"/>
          <value value="9990160000"/>
          <period>
            <start value="2004-04-21T11:57:00-05:00"/>
          </period>
          <assigner>
            <display value="Centers for Medicare and Medicaid Services"/>
          </assigner>
        </identifier>
        <active value="true"/>
        <type>
          <coding>
            <system value="http://terminology.hl7.org/CodeSystem/organization-type"/>
            <code value="ins"/>
            <display value="Insurance Company"/>
          </coding>
          <text value="Insurance Company"/>
        </type>
        <name value="Green Circle of Connecticut"/>
        <telecom>
          <system value="phone"/>
          <value value="9595555555"/>
        </telecom>
        <address>
          <extension url="http://hl7.org/fhir/StructureDefinition/geolocation">
            <extension url="latitude">
              <valueDecimal value="41.78007"/>
            </extension>
            <extension url="longitude">
              <valueDecimal value="-72.677099"/>
            </extension>
          </extension>
          <use value="work"/>
          <type value="both"/>
          <text value="185 Asylum Street, Hartford, CT 6101"/>
          <line value="185 Asylum Street"/>
          <city value="Hartford"/>
          <state value="CT"/>
          <postalCode value="6101"/>
          <country value="USA"/>
        </address>
        <partOf>
          <reference value="Organization/vhdir-managing-org-9990220000"/>
          <display value="Green Circle Ins"/>
        </partOf>
        <contact>
          <purpose>
            <coding>
              <system value="http://terminology.hl7.org/CodeSystem/contactentity-type"/>
              <code value="ADMIN"/>
              <display value="Administrative"/>
            </coding>
          </purpose>
          <name>
            <use value="official"/>
            <text value="Kathy Contact"/>
            <family value="Contact"/>
            <given value="Kathy"/>
          </name>
          <telecom>
            <extension url="http://hl7.org/fhir/uv/vhdir/StructureDefinition/contactpoint-availabletime">
              <extension url="daysOfWeek">
                <valueCode value="mon"/>
              </extension>
              <extension url="daysOfWeek">
                <valueCode value="tue"/>
              </extension>
              <extension url="daysOfWeek">
                <valueCode value="wed"/>
              </extension>
              <extension url="daysOfWeek">
                <valueCode value="thu"/>
              </extension>
              <extension url="daysOfWeek">
                <valueCode value="fri"/>
              </extension>
              <extension url="availableStartTime">
                <valueTime value="07:00:00"/>
              </extension>
              <extension url="availableEndTime">
                <valueTime value="18:00:00"/>
              </extension>
            </extension>
            <system value="phone"/>
            <value value="9595555555"/>
            <use value="work"/>
          </telecom>
        </contact>
        <endpoint>
          <reference value="Endpoint/vhdir-managing-org-9990160000-direct"/>
          <display value="Green Circle of Connecticut Direct address"/>
        </endpoint>
      </Organization>
    </resource>
    <request>
      <method value="PUT"/>
      <url value="Organization/vhdir-managing-org-9990160000"/>
    </request>
  </entry>
  <entry>
    <fullUrl value="http://vhdir-demo.fhir.org/fhir/Organization/vhdir-managing-org-9990170000"/>
    <resource>
      <Organization>
        <id value="vhdir-managing-org-9990170000"/>
        <meta>
          <profile value="http://hl7.org/fhir/uv/vhdir/StructureDefinition/vhdir-organization"/>
        </meta>
        <identifier>
          <extension url="http://hl7.org/fhir/uv/vhdir/StructureDefinition/identifier-status">
            <valueCode value="active"/>
          </extension>
          <use value="official"/>
          <type>
            <coding>
              <system value="http://terminology.hl7.org/CodeSystem/v2-0203"/>
              <code value="NPI"/>
              <display value="National provider identifier"/>
            </coding>
            <text value="NPI"/>
          </type>
          <system value="http://hl7.org/fhir/sid/us-npi"/>
          <value value="9990170000"/>
          <period>
            <start value="2004-04-21T11:57:00-05:00"/>
          </period>
          <assigner>
            <display value="Centers for Medicare and Medicaid Services"/>
          </assigner>
        </identifier>
        <active value="true"/>
        <type>
          <coding>
            <system value="http://terminology.hl7.org/CodeSystem/organization-type"/>
            <code value="ins"/>
            <display value="Insurance Company"/>
          </coding>
          <text value="Insurance Company"/>
        </type>
        <name value="Persona of Connecticut"/>
        <telecom>
          <system value="phone"/>
          <value value="9595555555"/>
        </telecom>
        <address>
          <extension url="http://hl7.org/fhir/StructureDefinition/geolocation">
            <extension url="latitude">
              <valueDecimal value="41.78007"/>
            </extension>
            <extension url="longitude">
              <valueDecimal value="-72.677099"/>
            </extension>
          </extension>
          <use value="work"/>
          <type value="both"/>
          <text value="27 Grove Street, Hartford, CT 6101"/>
          <line value="27 Grove Street"/>
          <city value="Hartford"/>
          <state value="CT"/>
          <postalCode value="6101"/>
          <country value="USA"/>
        </address>
        <partOf>
          <reference value="Organization/vhdir-managing-org-9990230000"/>
          <display value="Persona"/>
        </partOf>
        <contact>
          <purpose>
            <coding>
              <system value="http://terminology.hl7.org/CodeSystem/contactentity-type"/>
              <code value="ADMIN"/>
              <display value="Administrative"/>
            </coding>
          </purpose>
          <name>
            <use value="official"/>
            <text value="Kathy Contact"/>
            <family value="Contact"/>
            <given value="Kathy"/>
          </name>
          <telecom>
            <extension url="http://hl7.org/fhir/uv/vhdir/StructureDefinition/contactpoint-availabletime">
              <extension url="daysOfWeek">
                <valueCode value="mon"/>
              </extension>
              <extension url="daysOfWeek">
                <valueCode value="tue"/>
              </extension>
              <extension url="daysOfWeek">
                <valueCode value="wed"/>
              </extension>
              <extension url="daysOfWeek">
                <valueCode value="thu"/>
              </extension>
              <extension url="daysOfWeek">
                <valueCode value="fri"/>
              </extension>
              <extension url="availableStartTime">
                <valueTime value="07:00:00"/>
              </extension>
              <extension url="availableEndTime">
                <valueTime value="18:00:00"/>
              </extension>
            </extension>
            <system value="phone"/>
            <value value="9595555555"/>
            <use value="work"/>
          </telecom>
        </contact>
        <endpoint>
          <reference value="Endpoint/vhdir-managing-org-9990170000-direct"/>
          <display value="Persona of Connecticut Direct address"/>
        </endpoint>
      </Organization>
    </resource>
    <request>
      <method value="PUT"/>
      <url value="Organization/vhdir-managing-org-9990170000"/>
    </request>
  </entry>
  <entry>
    <fullUrl value="http://vhdir-demo.fhir.org/fhir/Organization/vhdir-managing-org-9990180000"/>
    <resource>
      <Organization>
        <id value="vhdir-managing-org-9990180000"/>
        <meta>
          <profile value="http://hl7.org/fhir/uv/vhdir/StructureDefinition/vhdir-organization"/>
        </meta>
        <identifier>
          <extension url="http://hl7.org/fhir/uv/vhdir/StructureDefinition/identifier-status">
            <valueCode value="active"/>
          </extension>
          <use value="official"/>
          <type>
            <coding>
              <system value="http://terminology.hl7.org/CodeSystem/v2-0203"/>
              <code value="NPI"/>
              <display value="National provider identifier"/>
            </coding>
            <text value="NPI"/>
          </type>
          <system value="http://hl7.org/fhir/sid/us-npi"/>
          <value value="9990180000"/>
          <period>
            <start value="2004-04-21T11:57:00-05:00"/>
          </period>
          <assigner>
            <display value="Centers for Medicare and Medicaid Services"/>
          </assigner>
        </identifier>
        <active value="true"/>
        <type>
          <coding>
            <system value="http://terminology.hl7.org/CodeSystem/organization-type"/>
            <code value="ins"/>
            <display value="Insurance Company"/>
          </coding>
          <text value="Insurance Company"/>
        </type>
        <name value="Acme Insurance Co of Rhode Island"/>
        <telecom>
          <system value="phone"/>
          <value value="4015555555"/>
        </telecom>
        <address>
          <extension url="http://hl7.org/fhir/StructureDefinition/geolocation">
            <extension url="latitude">
              <valueDecimal value="41.82275"/>
            </extension>
            <extension url="longitude">
              <valueDecimal value="-71.414451"/>
            </extension>
          </extension>
          <use value="work"/>
          <type value="both"/>
          <text value="111 Westminster Street, Providence, RI 2901"/>
          <line value="111 Westminster Street"/>
          <city value="Providence"/>
          <state value="RI"/>
          <postalCode value="2901"/>
          <country value="USA"/>
        </address>
        <partOf>
          <reference value="Organization/vhdir-managing-org-9990210000"/>
          <display value="Acme Insurance Co"/>
        </partOf>
        <contact>
          <purpose>
            <coding>
              <system value="http://terminology.hl7.org/CodeSystem/contactentity-type"/>
              <code value="ADMIN"/>
              <display value="Administrative"/>
            </coding>
          </purpose>
          <name>
            <use value="official"/>
            <text value="Kathy Contact"/>
            <family value="Contact"/>
            <given value="Kathy"/>
          </name>
          <telecom>
            <extension url="http://hl7.org/fhir/uv/vhdir/StructureDefinition/contactpoint-availabletime">
              <extension url="daysOfWeek">
                <valueCode value="mon"/>
              </extension>
              <extension url="daysOfWeek">
                <valueCode value="tue"/>
              </extension>
              <extension url="daysOfWeek">
                <valueCode value="wed"/>
              </extension>
              <extension url="daysOfWeek">
                <valueCode value="thu"/>
              </extension>
              <extension url="daysOfWeek">
                <valueCode value="fri"/>
              </extension>
              <extension url="availableStartTime">
                <valueTime value="07:00:00"/>
              </extension>
              <extension url="availableEndTime">
                <valueTime value="18:00:00"/>
              </extension>
            </extension>
            <system value="phone"/>
            <value value="4015555555"/>
            <use value="work"/>
          </telecom>
        </contact>
        <endpoint>
          <reference value="Endpoint/vhdir-managing-org-9990180000-direct"/>
          <display value="Acme Insurance Co of Rhode Island Direct address"/>
        </endpoint>
      </Organization>
    </resource>
    <request>
      <method value="PUT"/>
      <url value="Organization/vhdir-managing-org-9990180000"/>
    </request>
  </entry>
  <entry>
    <fullUrl value="http://vhdir-demo.fhir.org/fhir/Organization/vhdir-managing-org-9990190000"/>
    <resource>
      <Organization>
        <id value="vhdir-managing-org-9990190000"/>
        <meta>
          <profile value="http://hl7.org/fhir/uv/vhdir/StructureDefinition/vhdir-organization"/>
        </meta>
        <identifier>
          <extension url="http://hl7.org/fhir/uv/vhdir/StructureDefinition/identifier-status">
            <valueCode value="active"/>
          </extension>
          <use value="official"/>
          <type>
            <coding>
              <system value="http://terminology.hl7.org/CodeSystem/v2-0203"/>
              <code value="NPI"/>
              <display value="National provider identifier"/>
            </coding>
            <text value="NPI"/>
          </type>
          <system value="http://hl7.org/fhir/sid/us-npi"/>
          <value value="9990190000"/>
          <period>
            <start value="2004-04-21T11:57:00-05:00"/>
          </period>
          <assigner>
            <display value="Centers for Medicare and Medicaid Services"/>
          </assigner>
        </identifier>
        <active value="true"/>
        <type>
          <coding>
            <system value="http://terminology.hl7.org/CodeSystem/organization-type"/>
            <code value="ins"/>
            <display value="Insurance Company"/>
          </coding>
          <text value="Insurance Company"/>
        </type>
        <name value="Green Circle of Rhode Island"/>
        <telecom>
          <system value="phone"/>
          <value value="4015555555"/>
        </telecom>
        <address>
          <extension url="http://hl7.org/fhir/StructureDefinition/geolocation">
            <extension url="latitude">
              <valueDecimal value="41.82275"/>
            </extension>
            <extension url="longitude">
              <valueDecimal value="-71.414451"/>
            </extension>
          </extension>
          <use value="work"/>
          <type value="both"/>
          <text value="One Financial Plaza, Providence, RI 2901"/>
          <line value="One Financial Plaza"/>
          <city value="Providence"/>
          <state value="RI"/>
          <postalCode value="2901"/>
          <country value="USA"/>
        </address>
        <partOf>
          <reference value="Organization/vhdir-managing-org-9990220000"/>
          <display value="Green Circle Ins"/>
        </partOf>
        <contact>
          <purpose>
            <coding>
              <system value="http://terminology.hl7.org/CodeSystem/contactentity-type"/>
              <code value="ADMIN"/>
              <display value="Administrative"/>
            </coding>
          </purpose>
          <name>
            <use value="official"/>
            <text value="Kathy Contact"/>
            <family value="Contact"/>
            <given value="Kathy"/>
          </name>
          <telecom>
            <extension url="http://hl7.org/fhir/uv/vhdir/StructureDefinition/contactpoint-availabletime">
              <extension url="daysOfWeek">
                <valueCode value="mon"/>
              </extension>
              <extension url="daysOfWeek">
                <valueCode value="tue"/>
              </extension>
              <extension url="daysOfWeek">
                <valueCode value="wed"/>
              </extension>
              <extension url="daysOfWeek">
                <valueCode value="thu"/>
              </extension>
              <extension url="daysOfWeek">
                <valueCode value="fri"/>
              </extension>
              <extension url="availableStartTime">
                <valueTime value="07:00:00"/>
              </extension>
              <extension url="availableEndTime">
                <valueTime value="18:00:00"/>
              </extension>
            </extension>
            <system value="phone"/>
            <value value="4015555555"/>
            <use value="work"/>
          </telecom>
        </contact>
        <endpoint>
          <reference value="Endpoint/vhdir-managing-org-9990190000-direct"/>
          <display value="Green Circle of Rhode Island Direct address"/>
        </endpoint>
      </Organization>
    </resource>
    <request>
      <method value="PUT"/>
      <url value="Organization/vhdir-managing-org-9990190000"/>
    </request>
  </entry>
  <entry>
    <fullUrl value="http://vhdir-demo.fhir.org/fhir/Organization/vhdir-managing-org-9990200000"/>
    <resource>
      <Organization>
        <id value="vhdir-managing-org-9990200000"/>
        <meta>
          <profile value="http://hl7.org/fhir/uv/vhdir/StructureDefinition/vhdir-organization"/>
        </meta>
        <identifier>
          <extension url="http://hl7.org/fhir/uv/vhdir/StructureDefinition/identifier-status">
            <valueCode value="active"/>
          </extension>
          <use value="official"/>
          <type>
            <coding>
              <system value="http://terminology.hl7.org/CodeSystem/v2-0203"/>
              <code value="NPI"/>
              <display value="National provider identifier"/>
            </coding>
            <text value="NPI"/>
          </type>
          <system value="http://hl7.org/fhir/sid/us-npi"/>
          <value value="9990200000"/>
          <period>
            <start value="2004-04-21T11:57:00-05:00"/>
          </period>
          <assigner>
            <display value="Centers for Medicare and Medicaid Services"/>
          </assigner>
        </identifier>
        <active value="true"/>
        <type>
          <coding>
            <system value="http://terminology.hl7.org/CodeSystem/organization-type"/>
            <code value="ins"/>
            <display value="Insurance Company"/>
          </coding>
          <text value="Insurance Company"/>
        </type>
        <name value="Persona of Rhode Island"/>
        <telecom>
          <system value="phone"/>
          <value value="4015555555"/>
        </telecom>
        <address>
          <extension url="http://hl7.org/fhir/StructureDefinition/geolocation">
            <extension url="latitude">
              <valueDecimal value="41.82275"/>
            </extension>
            <extension url="longitude">
              <valueDecimal value="-71.414451"/>
            </extension>
          </extension>
          <use value="work"/>
          <type value="both"/>
          <text value="500 Exchange Street, Providence, RI 2901"/>
          <line value="500 Exchange Street"/>
          <city value="Providence"/>
          <state value="RI"/>
          <postalCode value="2901"/>
          <country value="USA"/>
        </address>
        <partOf>
          <reference value="Organization/vhdir-managing-org-9990230000"/>
          <display value="Persona"/>
        </partOf>
        <contact>
          <purpose>
            <coding>
              <system value="http://terminology.hl7.org/CodeSystem/contactentity-type"/>
              <code value="ADMIN"/>
              <display value="Administrative"/>
            </coding>
          </purpose>
          <name>
            <use value="official"/>
            <text value="Kathy Contact"/>
            <family value="Contact"/>
            <given value="Kathy"/>
          </name>
          <telecom>
            <extension url="http://hl7.org/fhir/uv/vhdir/StructureDefinition/contactpoint-availabletime">
              <extension url="daysOfWeek">
                <valueCode value="mon"/>
              </extension>
              <extension url="daysOfWeek">
                <valueCode value="tue"/>
              </extension>
              <extension url="daysOfWeek">
                <valueCode value="wed"/>
              </extension>
              <extension url="daysOfWeek">
                <valueCode value="thu"/>
              </extension>
              <extension url="daysOfWeek">
                <valueCode value="fri"/>
              </extension>
              <extension url="availableStartTime">
                <valueTime value="07:00:00"/>
              </extension>
              <extension url="availableEndTime">
                <valueTime value="18:00:00"/>
              </extension>
            </extension>
            <system value="phone"/>
            <value value="4015555555"/>
            <use value="work"/>
          </telecom>
        </contact>
        <endpoint>
          <reference value="Endpoint/vhdir-managing-org-9990200000-direct"/>
          <display value="Persona of Rhode Island Direct address"/>
        </endpoint>
      </Organization>
    </resource>
    <request>
      <method value="PUT"/>
      <url value="Organization/vhdir-managing-org-9990200000"/>
    </request>
  </entry>
  <entry>
    <fullUrl value="http://vhdir-demo.fhir.org/fhir/Organization/vhdir-managing-org-9990120000"/>
    <resource>
      <Organization>
        <id value="vhdir-managing-org-9990120000"/>
        <meta>
          <profile value="http://hl7.org/fhir/uv/vhdir/StructureDefinition/vhdir-organization"/>
        </meta>
        <identifier>
          <extension url="http://hl7.org/fhir/uv/vhdir/StructureDefinition/identifier-status">
            <valueCode value="active"/>
          </extension>
          <use value="official"/>
          <type>
            <coding>
              <system value="http://terminology.hl7.org/CodeSystem/v2-0203"/>
              <code value="NPI"/>
              <display value="National provider identifier"/>
            </coding>
            <text value="NPI"/>
          </type>
          <system value="http://hl7.org/fhir/sid/us-npi"/>
          <value value="9990120000"/>
          <period>
            <start value="2004-04-21T11:57:00-05:00"/>
          </period>
          <assigner>
            <display value="Centers for Medicare and Medicaid Services"/>
          </assigner>
        </identifier>
        <active value="true"/>
        <type>
          <coding>
            <system value="http://terminology.hl7.org/CodeSystem/organization-type"/>
            <code value="ins"/>
            <display value="Insurance Company"/>
          </coding>
          <text value="Insurance Company"/>
        </type>
        <name value="Acme Insurance Co of Massachusetts"/>
        <telecom>
          <system value="phone"/>
          <value value="6075555555"/>
        </telecom>
        <address>
          <extension url="http://hl7.org/fhir/StructureDefinition/geolocation">
            <extension url="latitude">
              <valueDecimal value="42.370567"/>
            </extension>
            <extension url="longitude">
              <valueDecimal value="-71.026964"/>
            </extension>
          </extension>
          <use value="work"/>
          <type value="both"/>
          <text value="120 St James Ave, Boston, MA 2101"/>
          <line value="120 St James Ave"/>
          <city value="Boston"/>
          <state value="MA"/>
          <postalCode value="2101"/>
          <country value="USA"/>
        </address>
        <partOf>
          <reference value="Organization/vhdir-managing-org-9990210000"/>
          <display value="Acme Insurance Co"/>
        </partOf>
        <contact>
          <purpose>
            <coding>
              <system value="http://terminology.hl7.org/CodeSystem/contactentity-type"/>
              <code value="ADMIN"/>
              <display value="Administrative"/>
            </coding>
          </purpose>
          <name>
            <use value="official"/>
            <text value="Kathy Contact"/>
            <family value="Contact"/>
            <given value="Kathy"/>
          </name>
          <telecom>
            <extension url="http://hl7.org/fhir/uv/vhdir/StructureDefinition/contactpoint-availabletime">
              <extension url="daysOfWeek">
                <valueCode value="mon"/>
              </extension>
              <extension url="daysOfWeek">
                <valueCode value="tue"/>
              </extension>
              <extension url="daysOfWeek">
                <valueCode value="wed"/>
              </extension>
              <extension url="daysOfWeek">
                <valueCode value="thu"/>
              </extension>
              <extension url="daysOfWeek">
                <valueCode value="fri"/>
              </extension>
              <extension url="availableStartTime">
                <valueTime value="07:00:00"/>
              </extension>
              <extension url="availableEndTime">
                <valueTime value="18:00:00"/>
              </extension>
            </extension>
            <system value="phone"/>
            <value value="6075555555"/>
            <use value="work"/>
          </telecom>
        </contact>
        <endpoint>
          <reference value="Endpoint/vhdir-managing-org-9990120000-direct"/>
          <display value="Acme Insurance Co of Massachusetts Direct address"/>
        </endpoint>
      </Organization>
    </resource>
    <request>
      <method value="PUT"/>
      <url value="Organization/vhdir-managing-org-9990120000"/>
    </request>
  </entry>
  <entry>
    <fullUrl value="http://vhdir-demo.fhir.org/fhir/Organization/vhdir-managing-org-9990130000"/>
    <resource>
      <Organization>
        <id value="vhdir-managing-org-9990130000"/>
        <meta>
          <profile value="http://hl7.org/fhir/uv/vhdir/StructureDefinition/vhdir-organization"/>
        </meta>
        <identifier>
          <extension url="http://hl7.org/fhir/uv/vhdir/StructureDefinition/identifier-status">
            <valueCode value="active"/>
          </extension>
          <use value="official"/>
          <type>
            <coding>
              <system value="http://terminology.hl7.org/CodeSystem/v2-0203"/>
              <code value="NPI"/>
              <display value="National provider identifier"/>
            </coding>
            <text value="NPI"/>
          </type>
          <system value="http://hl7.org/fhir/sid/us-npi"/>
          <value value="9990130000"/>
          <period>
            <start value="2004-04-21T11:57:00-05:00"/>
          </period>
          <assigner>
            <display value="Centers for Medicare and Medicaid Services"/>
          </assigner>
        </identifier>
        <active value="true"/>
        <type>
          <coding>
            <system value="http://terminology.hl7.org/CodeSystem/organization-type"/>
            <code value="ins"/>
            <display value="Insurance Company"/>
          </coding>
          <text value="Insurance Company"/>
        </type>
        <name value="Green Circle of Massachusetts"/>
        <telecom>
          <system value="phone"/>
          <value value="6075555555"/>
        </telecom>
        <address>
          <extension url="http://hl7.org/fhir/StructureDefinition/geolocation">
            <extension url="latitude">
              <valueDecimal value="42.370567"/>
            </extension>
            <extension url="longitude">
              <valueDecimal value="-71.026964"/>
            </extension>
          </extension>
          <use value="work"/>
          <type value="both"/>
          <text value="800 Washington St, Boston, MA 2101"/>
          <line value="800 Washington St"/>
          <city value="Boston"/>
          <state value="MA"/>
          <postalCode value="2101"/>
          <country value="USA"/>
        </address>
        <partOf>
          <reference value="Organization/vhdir-managing-org-9990220000"/>
          <display value="Green Circle Ins"/>
        </partOf>
        <contact>
          <purpose>
            <coding>
              <system value="http://terminology.hl7.org/CodeSystem/contactentity-type"/>
              <code value="ADMIN"/>
              <display value="Administrative"/>
            </coding>
          </purpose>
          <name>
            <use value="official"/>
            <text value="Kathy Contact"/>
            <family value="Contact"/>
            <given value="Kathy"/>
          </name>
          <telecom>
            <extension url="http://hl7.org/fhir/uv/vhdir/StructureDefinition/contactpoint-availabletime">
              <extension url="daysOfWeek">
                <valueCode value="mon"/>
              </extension>
              <extension url="daysOfWeek">
                <valueCode value="tue"/>
              </extension>
              <extension url="daysOfWeek">
                <valueCode value="wed"/>
              </extension>
              <extension url="daysOfWeek">
                <valueCode value="thu"/>
              </extension>
              <extension url="daysOfWeek">
                <valueCode value="fri"/>
              </extension>
              <extension url="availableStartTime">
                <valueTime value="07:00:00"/>
              </extension>
              <extension url="availableEndTime">
                <valueTime value="18:00:00"/>
              </extension>
            </extension>
            <system value="phone"/>
            <value value="6075555555"/>
            <use value="work"/>
          </telecom>
        </contact>
        <endpoint>
          <reference value="Endpoint/vhdir-managing-org-9990130000-direct"/>
          <display value="Green Circle of Massachusetts Direct address"/>
        </endpoint>
      </Organization>
    </resource>
    <request>
      <method value="PUT"/>
      <url value="Organization/vhdir-managing-org-9990130000"/>
    </request>
  </entry>
  <entry>
    <fullUrl value="http://vhdir-demo.fhir.org/fhir/Organization/vhdir-managing-org-9990140000"/>
    <resource>
      <Organization>
        <id value="vhdir-managing-org-9990140000"/>
        <meta>
          <profile value="http://hl7.org/fhir/uv/vhdir/StructureDefinition/vhdir-organization"/>
        </meta>
        <identifier>
          <extension url="http://hl7.org/fhir/uv/vhdir/StructureDefinition/identifier-status">
            <valueCode value="active"/>
          </extension>
          <use value="official"/>
          <type>
            <coding>
              <system value="http://terminology.hl7.org/CodeSystem/v2-0203"/>
              <code value="NPI"/>
              <display value="National provider identifier"/>
            </coding>
            <text value="NPI"/>
          </type>
          <system value="http://hl7.org/fhir/sid/us-npi"/>
          <value value="9990140000"/>
          <period>
            <start value="2004-04-21T11:57:00-05:00"/>
          </period>
          <assigner>
            <display value="Centers for Medicare and Medicaid Services"/>
          </assigner>
        </identifier>
        <active value="true"/>
        <type>
          <coding>
            <system value="http://terminology.hl7.org/CodeSystem/organization-type"/>
            <code value="ins"/>
            <display value="Insurance Company"/>
          </coding>
          <text value="Insurance Company"/>
        </type>
        <name value="Persona of Massachusetts"/>
        <telecom>
          <system value="phone"/>
          <value value="6075555555"/>
        </telecom>
        <address>
          <extension url="http://hl7.org/fhir/StructureDefinition/geolocation">
            <extension url="latitude">
              <valueDecimal value="42.370567"/>
            </extension>
            <extension url="longitude">
              <valueDecimal value="-71.026964"/>
            </extension>
          </extension>
          <use value="work"/>
          <type value="both"/>
          <text value="120 Royall St, Boston, MA 2101"/>
          <line value="120 Royall St"/>
          <city value="Boston"/>
          <state value="MA"/>
          <postalCode value="2101"/>
          <country value="USA"/>
        </address>
        <partOf>
          <reference value="Organization/vhdir-managing-org-9990230000"/>
          <display value="Persona"/>
        </partOf>
        <contact>
          <purpose>
            <coding>
              <system value="http://terminology.hl7.org/CodeSystem/contactentity-type"/>
              <code value="ADMIN"/>
              <display value="Administrative"/>
            </coding>
          </purpose>
          <name>
            <use value="official"/>
            <text value="Kathy Contact"/>
            <family value="Contact"/>
            <given value="Kathy"/>
          </name>
          <telecom>
            <extension url="http://hl7.org/fhir/uv/vhdir/StructureDefinition/contactpoint-availabletime">
              <extension url="daysOfWeek">
                <valueCode value="mon"/>
              </extension>
              <extension url="daysOfWeek">
                <valueCode value="tue"/>
              </extension>
              <extension url="daysOfWeek">
                <valueCode value="wed"/>
              </extension>
              <extension url="daysOfWeek">
                <valueCode value="thu"/>
              </extension>
              <extension url="daysOfWeek">
                <valueCode value="fri"/>
              </extension>
              <extension url="availableStartTime">
                <valueTime value="07:00:00"/>
              </extension>
              <extension url="availableEndTime">
                <valueTime value="18:00:00"/>
              </extension>
            </extension>
            <system value="phone"/>
            <value value="6075555555"/>
            <use value="work"/>
          </telecom>
        </contact>
        <endpoint>
          <reference value="Endpoint/vhdir-managing-org-9990140000-direct"/>
          <display value="Persona of Massachusetts Direct address"/>
        </endpoint>
      </Organization>
    </resource>
    <request>
      <method value="PUT"/>
      <url value="Organization/vhdir-managing-org-9990140000"/>
    </request>
  </entry>
  <entry>
    <fullUrl value="http://vhdir-demo.fhir.org/fhir/Organization/vhdir-managing-org-9990150000"/>
    <resource>
      <Organization>
        <id value="vhdir-managing-org-9990150000"/>
        <meta>
          <profile value="http://hl7.org/fhir/uv/vhdir/StructureDefinition/vhdir-organization"/>
        </meta>
        <identifier>
          <extension url="http://hl7.org/fhir/uv/vhdir/StructureDefinition/identifier-status">
            <valueCode value="active"/>
          </extension>
          <use value="official"/>
          <type>
            <coding>
              <system value="http://terminology.hl7.org/CodeSystem/v2-0203"/>
              <code value="NPI"/>
              <display value="National provider identifier"/>
            </coding>
            <text value="NPI"/>
          </type>
          <system value="http://hl7.org/fhir/sid/us-npi"/>
          <value value="9990150000"/>
          <period>
            <start value="2004-04-21T11:57:00-05:00"/>
          </period>
          <assigner>
            <display value="Centers for Medicare and Medicaid Services"/>
          </assigner>
        </identifier>
        <active value="true"/>
        <type>
          <coding>
            <system value="http://terminology.hl7.org/CodeSystem/organization-type"/>
            <code value="ins"/>
            <display value="Insurance Company"/>
          </coding>
          <text value="Insurance Company"/>
        </type>
        <name value="Acme Insurance Co of Connecticut"/>
        <telecom>
          <system value="phone"/>
          <value value="9595555555"/>
        </telecom>
        <address>
          <extension url="http://hl7.org/fhir/StructureDefinition/geolocation">
            <extension url="latitude">
              <valueDecimal value="41.78007"/>
            </extension>
            <extension url="longitude">
              <valueDecimal value="-72.677099"/>
            </extension>
          </extension>
          <use value="work"/>
          <type value="both"/>
          <text value="690 Asylum Avenue, Hartford, CT 6101"/>
          <line value="690 Asylum Avenue"/>
          <city value="Hartford"/>
          <state value="CT"/>
          <postalCode value="6101"/>
          <country value="USA"/>
        </address>
        <partOf>
          <reference value="Organization/vhdir-managing-org-9990210000"/>
          <display value="Acme Insurance Co"/>
        </partOf>
        <contact>
          <purpose>
            <coding>
              <system value="http://terminology.hl7.org/CodeSystem/contactentity-type"/>
              <code value="ADMIN"/>
              <display value="Administrative"/>
            </coding>
          </purpose>
          <name>
            <use value="official"/>
            <text value="Kathy Contact"/>
            <family value="Contact"/>
            <given value="Kathy"/>
          </name>
          <telecom>
            <extension url="http://hl7.org/fhir/uv/vhdir/StructureDefinition/contactpoint-availabletime">
              <extension url="daysOfWeek">
                <valueCode value="mon"/>
              </extension>
              <extension url="daysOfWeek">
                <valueCode value="tue"/>
              </extension>
              <extension url="daysOfWeek">
                <valueCode value="wed"/>
              </extension>
              <extension url="daysOfWeek">
                <valueCode value="thu"/>
              </extension>
              <extension url="daysOfWeek">
                <valueCode value="fri"/>
              </extension>
              <extension url="availableStartTime">
                <valueTime value="07:00:00"/>
              </extension>
              <extension url="availableEndTime">
                <valueTime value="18:00:00"/>
              </extension>
            </extension>
            <system value="phone"/>
            <value value="9595555555"/>
            <use value="work"/>
          </telecom>
        </contact>
        <endpoint>
          <reference value="Endpoint/vhdir-managing-org-9990150000-direct"/>
          <display value="Acme Insurance Co of Connecticut Direct address"/>
        </endpoint>
      </Organization>
    </resource>
    <request>
      <method value="PUT"/>
      <url value="Organization/vhdir-managing-org-9990150000"/>
    </request>
  </entry>
  <entry>
    <fullUrl value="http://vhdir-demo.fhir.org/fhir/Organization/vhdir-managing-org-9990160000"/>
    <resource>
      <Organization>
        <id value="vhdir-managing-org-9990160000"/>
        <meta>
          <profile value="http://hl7.org/fhir/uv/vhdir/StructureDefinition/vhdir-organization"/>
        </meta>
        <identifier>
          <extension url="http://hl7.org/fhir/uv/vhdir/StructureDefinition/identifier-status">
            <valueCode value="active"/>
          </extension>
          <use value="official"/>
          <type>
            <coding>
              <system value="http://terminology.hl7.org/CodeSystem/v2-0203"/>
              <code value="NPI"/>
              <display value="National provider identifier"/>
            </coding>
            <text value="NPI"/>
          </type>
          <system value="http://hl7.org/fhir/sid/us-npi"/>
          <value value="9990160000"/>
          <period>
            <start value="2004-04-21T11:57:00-05:00"/>
          </period>
          <assigner>
            <display value="Centers for Medicare and Medicaid Services"/>
          </assigner>
        </identifier>
        <active value="true"/>
        <type>
          <coding>
            <system value="http://terminology.hl7.org/CodeSystem/organization-type"/>
            <code value="ins"/>
            <display value="Insurance Company"/>
          </coding>
          <text value="Insurance Company"/>
        </type>
        <name value="Green Circle of Connecticut"/>
        <telecom>
          <system value="phone"/>
          <value value="9595555555"/>
        </telecom>
        <address>
          <extension url="http://hl7.org/fhir/StructureDefinition/geolocation">
            <extension url="latitude">
              <valueDecimal value="41.78007"/>
            </extension>
            <extension url="longitude">
              <valueDecimal value="-72.677099"/>
            </extension>
          </extension>
          <use value="work"/>
          <type value="both"/>
          <text value="185 Asylum Street, Hartford, CT 6101"/>
          <line value="185 Asylum Street"/>
          <city value="Hartford"/>
          <state value="CT"/>
          <postalCode value="6101"/>
          <country value="USA"/>
        </address>
        <partOf>
          <reference value="Organization/vhdir-managing-org-9990220000"/>
          <display value="Green Circle Ins"/>
        </partOf>
        <contact>
          <purpose>
            <coding>
              <system value="http://terminology.hl7.org/CodeSystem/contactentity-type"/>
              <code value="ADMIN"/>
              <display value="Administrative"/>
            </coding>
          </purpose>
          <name>
            <use value="official"/>
            <text value="Kathy Contact"/>
            <family value="Contact"/>
            <given value="Kathy"/>
          </name>
          <telecom>
            <extension url="http://hl7.org/fhir/uv/vhdir/StructureDefinition/contactpoint-availabletime">
              <extension url="daysOfWeek">
                <valueCode value="mon"/>
              </extension>
              <extension url="daysOfWeek">
                <valueCode value="tue"/>
              </extension>
              <extension url="daysOfWeek">
                <valueCode value="wed"/>
              </extension>
              <extension url="daysOfWeek">
                <valueCode value="thu"/>
              </extension>
              <extension url="daysOfWeek">
                <valueCode value="fri"/>
              </extension>
              <extension url="availableStartTime">
                <valueTime value="07:00:00"/>
              </extension>
              <extension url="availableEndTime">
                <valueTime value="18:00:00"/>
              </extension>
            </extension>
            <system value="phone"/>
            <value value="9595555555"/>
            <use value="work"/>
          </telecom>
        </contact>
        <endpoint>
          <reference value="Endpoint/vhdir-managing-org-9990160000-direct"/>
          <display value="Green Circle of Connecticut Direct address"/>
        </endpoint>
      </Organization>
    </resource>
    <request>
      <method value="PUT"/>
      <url value="Organization/vhdir-managing-org-9990160000"/>
    </request>
  </entry>
  <entry>
    <fullUrl value="http://vhdir-demo.fhir.org/fhir/Organization/vhdir-managing-org-9990170000"/>
    <resource>
      <Organization>
        <id value="vhdir-managing-org-9990170000"/>
        <meta>
          <profile value="http://hl7.org/fhir/uv/vhdir/StructureDefinition/vhdir-organization"/>
        </meta>
        <identifier>
          <extension url="http://hl7.org/fhir/uv/vhdir/StructureDefinition/identifier-status">
            <valueCode value="active"/>
          </extension>
          <use value="official"/>
          <type>
            <coding>
              <system value="http://terminology.hl7.org/CodeSystem/v2-0203"/>
              <code value="NPI"/>
              <display value="National provider identifier"/>
            </coding>
            <text value="NPI"/>
          </type>
          <system value="http://hl7.org/fhir/sid/us-npi"/>
          <value value="9990170000"/>
          <period>
            <start value="2004-04-21T11:57:00-05:00"/>
          </period>
          <assigner>
            <display value="Centers for Medicare and Medicaid Services"/>
          </assigner>
        </identifier>
        <active value="true"/>
        <type>
          <coding>
            <system value="http://terminology.hl7.org/CodeSystem/organization-type"/>
            <code value="ins"/>
            <display value="Insurance Company"/>
          </coding>
          <text value="Insurance Company"/>
        </type>
        <name value="Persona of Connecticut"/>
        <telecom>
          <system value="phone"/>
          <value value="9595555555"/>
        </telecom>
        <address>
          <extension url="http://hl7.org/fhir/StructureDefinition/geolocation">
            <extension url="latitude">
              <valueDecimal value="41.78007"/>
            </extension>
            <extension url="longitude">
              <valueDecimal value="-72.677099"/>
            </extension>
          </extension>
          <use value="work"/>
          <type value="both"/>
          <text value="27 Grove Street, Hartford, CT 6101"/>
          <line value="27 Grove Street"/>
          <city value="Hartford"/>
          <state value="CT"/>
          <postalCode value="6101"/>
          <country value="USA"/>
        </address>
        <partOf>
          <reference value="Organization/vhdir-managing-org-9990230000"/>
          <display value="Persona"/>
        </partOf>
        <contact>
          <purpose>
            <coding>
              <system value="http://terminology.hl7.org/CodeSystem/contactentity-type"/>
              <code value="ADMIN"/>
              <display value="Administrative"/>
            </coding>
          </purpose>
          <name>
            <use value="official"/>
            <text value="Kathy Contact"/>
            <family value="Contact"/>
            <given value="Kathy"/>
          </name>
          <telecom>
            <extension url="http://hl7.org/fhir/uv/vhdir/StructureDefinition/contactpoint-availabletime">
              <extension url="daysOfWeek">
                <valueCode value="mon"/>
              </extension>
              <extension url="daysOfWeek">
                <valueCode value="tue"/>
              </extension>
              <extension url="daysOfWeek">
                <valueCode value="wed"/>
              </extension>
              <extension url="daysOfWeek">
                <valueCode value="thu"/>
              </extension>
              <extension url="daysOfWeek">
                <valueCode value="fri"/>
              </extension>
              <extension url="availableStartTime">
                <valueTime value="07:00:00"/>
              </extension>
              <extension url="availableEndTime">
                <valueTime value="18:00:00"/>
              </extension>
            </extension>
            <system value="phone"/>
            <value value="9595555555"/>
            <use value="work"/>
          </telecom>
        </contact>
        <endpoint>
          <reference value="Endpoint/vhdir-managing-org-9990170000-direct"/>
          <display value="Persona of Connecticut Direct address"/>
        </endpoint>
      </Organization>
    </resource>
    <request>
      <method value="PUT"/>
      <url value="Organization/vhdir-managing-org-9990170000"/>
    </request>
  </entry>
  <entry>
    <fullUrl value="http://vhdir-demo.fhir.org/fhir/Organization/vhdir-managing-org-9990180000"/>
    <resource>
      <Organization>
        <id value="vhdir-managing-org-9990180000"/>
        <meta>
          <profile value="http://hl7.org/fhir/uv/vhdir/StructureDefinition/vhdir-organization"/>
        </meta>
        <identifier>
          <extension url="http://hl7.org/fhir/uv/vhdir/StructureDefinition/identifier-status">
            <valueCode value="active"/>
          </extension>
          <use value="official"/>
          <type>
            <coding>
              <system value="http://terminology.hl7.org/CodeSystem/v2-0203"/>
              <code value="NPI"/>
              <display value="National provider identifier"/>
            </coding>
            <text value="NPI"/>
          </type>
          <system value="http://hl7.org/fhir/sid/us-npi"/>
          <value value="9990180000"/>
          <period>
            <start value="2004-04-21T11:57:00-05:00"/>
          </period>
          <assigner>
            <display value="Centers for Medicare and Medicaid Services"/>
          </assigner>
        </identifier>
        <active value="true"/>
        <type>
          <coding>
            <system value="http://terminology.hl7.org/CodeSystem/organization-type"/>
            <code value="ins"/>
            <display value="Insurance Company"/>
          </coding>
          <text value="Insurance Company"/>
        </type>
        <name value="Acme Insurance Co of Rhode Island"/>
        <telecom>
          <system value="phone"/>
          <value value="4015555555"/>
        </telecom>
        <address>
          <extension url="http://hl7.org/fhir/StructureDefinition/geolocation">
            <extension url="latitude">
              <valueDecimal value="41.82275"/>
            </extension>
            <extension url="longitude">
              <valueDecimal value="-71.414451"/>
            </extension>
          </extension>
          <use value="work"/>
          <type value="both"/>
          <text value="111 Westminster Street, Providence, RI 2901"/>
          <line value="111 Westminster Street"/>
          <city value="Providence"/>
          <state value="RI"/>
          <postalCode value="2901"/>
          <country value="USA"/>
        </address>
        <partOf>
          <reference value="Organization/vhdir-managing-org-9990210000"/>
          <display value="Acme Insurance Co"/>
        </partOf>
        <contact>
          <purpose>
            <coding>
              <system value="http://terminology.hl7.org/CodeSystem/contactentity-type"/>
              <code value="ADMIN"/>
              <display value="Administrative"/>
            </coding>
          </purpose>
          <name>
            <use value="official"/>
            <text value="Kathy Contact"/>
            <family value="Contact"/>
            <given value="Kathy"/>
          </name>
          <telecom>
            <extension url="http://hl7.org/fhir/uv/vhdir/StructureDefinition/contactpoint-availabletime">
              <extension url="daysOfWeek">
                <valueCode value="mon"/>
              </extension>
              <extension url="daysOfWeek">
                <valueCode value="tue"/>
              </extension>
              <extension url="daysOfWeek">
                <valueCode value="wed"/>
              </extension>
              <extension url="daysOfWeek">
                <valueCode value="thu"/>
              </extension>
              <extension url="daysOfWeek">
                <valueCode value="fri"/>
              </extension>
              <extension url="availableStartTime">
                <valueTime value="07:00:00"/>
              </extension>
              <extension url="availableEndTime">
                <valueTime value="18:00:00"/>
              </extension>
            </extension>
            <system value="phone"/>
            <value value="4015555555"/>
            <use value="work"/>
          </telecom>
        </contact>
        <endpoint>
          <reference value="Endpoint/vhdir-managing-org-9990180000-direct"/>
          <display value="Acme Insurance Co of Rhode Island Direct address"/>
        </endpoint>
      </Organization>
    </resource>
    <request>
      <method value="PUT"/>
      <url value="Organization/vhdir-managing-org-9990180000"/>
    </request>
  </entry>
  <entry>
    <fullUrl value="http://vhdir-demo.fhir.org/fhir/Organization/vhdir-managing-org-9990190000"/>
    <resource>
      <Organization>
        <id value="vhdir-managing-org-9990190000"/>
        <meta>
          <profile value="http://hl7.org/fhir/uv/vhdir/StructureDefinition/vhdir-organization"/>
        </meta>
        <identifier>
          <extension url="http://hl7.org/fhir/uv/vhdir/StructureDefinition/identifier-status">
            <valueCode value="active"/>
          </extension>
          <use value="official"/>
          <type>
            <coding>
              <system value="http://terminology.hl7.org/CodeSystem/v2-0203"/>
              <code value="NPI"/>
              <display value="National provider identifier"/>
            </coding>
            <text value="NPI"/>
          </type>
          <system value="http://hl7.org/fhir/sid/us-npi"/>
          <value value="9990190000"/>
          <period>
            <start value="2004-04-21T11:57:00-05:00"/>
          </period>
          <assigner>
            <display value="Centers for Medicare and Medicaid Services"/>
          </assigner>
        </identifier>
        <active value="true"/>
        <type>
          <coding>
            <system value="http://terminology.hl7.org/CodeSystem/organization-type"/>
            <code value="ins"/>
            <display value="Insurance Company"/>
          </coding>
          <text value="Insurance Company"/>
        </type>
        <name value="Green Circle of Rhode Island"/>
        <telecom>
          <system value="phone"/>
          <value value="4015555555"/>
        </telecom>
        <address>
          <extension url="http://hl7.org/fhir/StructureDefinition/geolocation">
            <extension url="latitude">
              <valueDecimal value="41.82275"/>
            </extension>
            <extension url="longitude">
              <valueDecimal value="-71.414451"/>
            </extension>
          </extension>
          <use value="work"/>
          <type value="both"/>
          <text value="One Financial Plaza, Providence, RI 2901"/>
          <line value="One Financial Plaza"/>
          <city value="Providence"/>
          <state value="RI"/>
          <postalCode value="2901"/>
          <country value="USA"/>
        </address>
        <partOf>
          <reference value="Organization/vhdir-managing-org-9990220000"/>
          <display value="Green Circle Ins"/>
        </partOf>
        <contact>
          <purpose>
            <coding>
              <system value="http://terminology.hl7.org/CodeSystem/contactentity-type"/>
              <code value="ADMIN"/>
              <display value="Administrative"/>
            </coding>
          </purpose>
          <name>
            <use value="official"/>
            <text value="Kathy Contact"/>
            <family value="Contact"/>
            <given value="Kathy"/>
          </name>
          <telecom>
            <extension url="http://hl7.org/fhir/uv/vhdir/StructureDefinition/contactpoint-availabletime">
              <extension url="daysOfWeek">
                <valueCode value="mon"/>
              </extension>
              <extension url="daysOfWeek">
                <valueCode value="tue"/>
              </extension>
              <extension url="daysOfWeek">
                <valueCode value="wed"/>
              </extension>
              <extension url="daysOfWeek">
                <valueCode value="thu"/>
              </extension>
              <extension url="daysOfWeek">
                <valueCode value="fri"/>
              </extension>
              <extension url="availableStartTime">
                <valueTime value="07:00:00"/>
              </extension>
              <extension url="availableEndTime">
                <valueTime value="18:00:00"/>
              </extension>
            </extension>
            <system value="phone"/>
            <value value="4015555555"/>
            <use value="work"/>
          </telecom>
        </contact>
        <endpoint>
          <reference value="Endpoint/vhdir-managing-org-9990190000-direct"/>
          <display value="Green Circle of Rhode Island Direct address"/>
        </endpoint>
      </Organization>
    </resource>
    <request>
      <method value="PUT"/>
      <url value="Organization/vhdir-managing-org-9990190000"/>
    </request>
  </entry>
  <entry>
    <fullUrl value="http://vhdir-demo.fhir.org/fhir/Organization/vhdir-managing-org-9990200000"/>
    <resource>
      <Organization>
        <id value="vhdir-managing-org-9990200000"/>
        <meta>
          <profile value="http://hl7.org/fhir/uv/vhdir/StructureDefinition/vhdir-organization"/>
        </meta>
        <identifier>
          <extension url="http://hl7.org/fhir/uv/vhdir/StructureDefinition/identifier-status">
            <valueCode value="active"/>
          </extension>
          <use value="official"/>
          <type>
            <coding>
              <system value="http://terminology.hl7.org/CodeSystem/v2-0203"/>
              <code value="NPI"/>
              <display value="National provider identifier"/>
            </coding>
            <text value="NPI"/>
          </type>
          <system value="http://hl7.org/fhir/sid/us-npi"/>
          <value value="9990200000"/>
          <period>
            <start value="2004-04-21T11:57:00-05:00"/>
          </period>
          <assigner>
            <display value="Centers for Medicare and Medicaid Services"/>
          </assigner>
        </identifier>
        <active value="true"/>
        <type>
          <coding>
            <system value="http://terminology.hl7.org/CodeSystem/organization-type"/>
            <code value="ins"/>
            <display value="Insurance Company"/>
          </coding>
          <text value="Insurance Company"/>
        </type>
        <name value="Persona of Rhode Island"/>
        <telecom>
          <system value="phone"/>
          <value value="4015555555"/>
        </telecom>
        <address>
          <extension url="http://hl7.org/fhir/StructureDefinition/geolocation">
            <extension url="latitude">
              <valueDecimal value="41.82275"/>
            </extension>
            <extension url="longitude">
              <valueDecimal value="-71.414451"/>
            </extension>
          </extension>
          <use value="work"/>
          <type value="both"/>
          <text value="500 Exchange Street, Providence, RI 2901"/>
          <line value="500 Exchange Street"/>
          <city value="Providence"/>
          <state value="RI"/>
          <postalCode value="2901"/>
          <country value="USA"/>
        </address>
        <partOf>
          <reference value="Organization/vhdir-managing-org-9990230000"/>
          <display value="Persona"/>
        </partOf>
        <contact>
          <purpose>
            <coding>
              <system value="http://terminology.hl7.org/CodeSystem/contactentity-type"/>
              <code value="ADMIN"/>
              <display value="Administrative"/>
            </coding>
          </purpose>
          <name>
            <use value="official"/>
            <text value="Kathy Contact"/>
            <family value="Contact"/>
            <given value="Kathy"/>
          </name>
          <telecom>
            <extension url="http://hl7.org/fhir/uv/vhdir/StructureDefinition/contactpoint-availabletime">
              <extension url="daysOfWeek">
                <valueCode value="mon"/>
              </extension>
              <extension url="daysOfWeek">
                <valueCode value="tue"/>
              </extension>
              <extension url="daysOfWeek">
                <valueCode value="wed"/>
              </extension>
              <extension url="daysOfWeek">
                <valueCode value="thu"/>
              </extension>
              <extension url="daysOfWeek">
                <valueCode value="fri"/>
              </extension>
              <extension url="availableStartTime">
                <valueTime value="07:00:00"/>
              </extension>
              <extension url="availableEndTime">
                <valueTime value="18:00:00"/>
              </extension>
            </extension>
            <system value="phone"/>
            <value value="4015555555"/>
            <use value="work"/>
          </telecom>
        </contact>
        <endpoint>
          <reference value="Endpoint/vhdir-managing-org-9990200000-direct"/>
          <display value="Persona of Rhode Island Direct address"/>
        </endpoint>
      </Organization>
    </resource>
    <request>
      <method value="PUT"/>
      <url value="Organization/vhdir-managing-org-9990200000"/>
    </request>
  </entry>
</Bundle>