<?xml version="1.0" encoding="UTF-8"?>

<Bundle xmlns="http://hl7.org/fhir">
  <id value="womens-shelter"/>
  <meta>
    <versionId value="1"/>
    <lastUpdated value="2017-03-17T01:28:32.06+00:00"/>
  </meta>
  <type value="collection"/>
  <entry>
    <fullUrl value="http://example.org/HealthcareService/hcs-ws"/>
    <resource>
      <HealthcareService>
        <id value="hcs-ws"/>
        <meta>
          <profile value="http://hl7.org/fhir/uv/vhdir/StructureDefinition/vhdir-healthcareservice"/>
        </meta>
        <text>
          <status value="generated"/><div xmlns="http://www.w3.org/1999/xhtml"><p><b>Generated Narrative</b></p><div style="display: inline-block; background-color: #d9e0e7; padding: 6px; margin: 4px; border: 1px solid #8da1b4; border-radius: 5px; line-height: 60%"><p style="margin-bottom: 0px">Resource "hcs-ws" </p><p style="margin-bottom: 0px">Profile: <a href="StructureDefinition-vhdir-healthcareservice.html">VhDir Healthcare Service</a></p></div><p><b>active</b>: true</p><p><b>type</b>: Women's shelter <span style="background: LightGoldenRodYellow; margin: 4px; border: 1px solid khaki"> ()</span></p><p><b>location</b>: <a href="#Location_loc-ws">See above (Location/loc-ws: The W Womens Shelter)</a></p><p><b>name</b>: Womens shelter</p><p><b>comment</b>: This is an example of a Women's shelter to demonstrate how to restrict multiple contents</p><p><b>telecom</b>: <a href="https://exmaple.org/The-W-shelter">https://exmaple.org/The-W-shelter</a>, ph: 555 wshelter</p></div>
        </text>
        <contained>
          <Consent>
            <id value="restrict"/>
            <meta>
              <profile value="http://hl7.org/fhir/uv/vhdir/StructureDefinition/vhdir-restriction"/>
            </meta>
            <status value="active"/>
            <scope>
              <coding>
                <system value="http://hl7.org/fhir/uv/vhdir/CodeSystem/consent"/>
                <code value="protect"/>
                <display value="Protect"/>
              </coding>
              <text value="Direct Referral use only"/>
            </scope>
            <category>
              <coding>
                <system value="http://loinc.org"/>
                <code value="57016-8"/>
                <display value="Privacy policy acknowledgment Document"/>
              </coding>
              <text value="conditional release (per DUA)"/>
            </category>
            <dateTime value="2017-12-18"/>
            <policy>
              <uri value="http://example.org/federal/policy#womans-shelter"/>
            </policy>
            <provision>
              <type value="permit"/>
              <actor>
                <role>
                  <coding>
                    <system value="http://terminology.hl7.org/CodeSystem/v3-ParticipationType"/>
                    <code value="IRCP"/>
                    <display value="information recipient"/>
                  </coding>
                </role>
                <reference>
                  <display value="Blue Team @ The W shelter (CareTeam)"/>
                </reference>
              </actor>
              <action>
                <text value="specific value"/>
              </action>
              <securityLabel>
                <display value="womens-abuse-councellors"/>
              </securityLabel>
              <purpose>
                <display value="Women&#39;s Shelter"/>
              </purpose>
            </provision>
          </Consent>
        </contained>
        <active value="true"/>
        <type>
          <text value="Women&#39;s shelter"/>
        </type>
        <location>
          <extension url="http://hl7.org/fhir/uv/vhdir/StructureDefinition/usage-restriction">
            <valueReference>
              <reference value="#restrict"/>
            </valueReference>
          </extension>
          <reference value="Location/loc-ws"/>
          <display value="The W Womens Shelter"/>
        </location>
        <name value="Womens shelter"/>
        <comment value="This is an example of a Women&#39;s shelter to demonstrate how to restrict multiple contents"/>
        <telecom>
          <system value="url"/>
          <value value="https://exmaple.org/The-W-shelter"/>
        </telecom>
        <telecom>
          <extension url="http://hl7.org/fhir/uv/vhdir/StructureDefinition/usage-restriction">
            <valueReference>
              <reference value="#restrict"/>
            </valueReference>
          </extension>
          <system value="phone"/>
          <value value="555 wshelter"/>
        </telecom>
      </HealthcareService>
    </resource>
  </entry>
  <entry>
    <fullUrl value="http://example.org/Location/loc-ws"/>
    <resource>
      <Location>
        <id value="loc-ws"/>
        <meta>
          <profile value="http://hl7.org/fhir/uv/vhdir/StructureDefinition/vhdir-location"/>
        </meta>
        <text>
          <status value="generated"/><div xmlns="http://www.w3.org/1999/xhtml"><p><b>Generated Narrative</b></p><div style="display: inline-block; background-color: #d9e0e7; padding: 6px; margin: 4px; border: 1px solid #8da1b4; border-radius: 5px; line-height: 60%"><p style="margin-bottom: 0px">Resource "loc-ws" </p><p style="margin-bottom: 0px">Profile: <a href="StructureDefinition-vhdir-location.html">VhDir Location</a></p></div><p><b>status</b>: active</p><p><b>name</b>: The W Womens Shelter</p><p><b>telecom</b>: <a href="https://exmaple.org/The-W-shelter">https://exmaple.org/The-W-shelter</a>, ph: 555 administration</p><p><b>address</b>: 3300 Washtenaw Avenue, Suite 227 Ann Arbor MI 48104 USA </p></div>
        </text>
        <contained>
          <Consent>
            <id value="restrict"/>
            <meta>
              <profile value="http://hl7.org/fhir/uv/vhdir/StructureDefinition/vhdir-restriction"/>
            </meta>
            <status value="active"/>
            <scope>
              <coding>
                <system value="http://hl7.org/fhir/uv/vhdir/CodeSystem/consent"/>
                <code value="protect"/>
                <display value="Protect"/>
              </coding>
              <text value="Direct Referral use only"/>
            </scope>
            <category>
              <coding>
                <system value="http://loinc.org"/>
                <code value="57016-8"/>
                <display value="Privacy policy acknowledgment Document"/>
              </coding>
              <text value="conditional release (per DUA)"/>
            </category>
            <dateTime value="2017-12-18"/>
            <policy>
              <uri value="http://example.org/federal/policy#womans-shelter"/>
            </policy>
            <provision>
              <type value="permit"/>
              <actor>
                <role>
                  <coding>
                    <system value="http://terminology.hl7.org/CodeSystem/v3-ParticipationType"/>
                    <code value="IRCP"/>
                    <display value="information recipient"/>
                  </coding>
                </role>
                <reference>
                  <display value="Blue Team @ The W shelter (CareTeam)"/>
                </reference>
              </actor>
              <action>
                <text value="specific value"/>
              </action>
              <securityLabel>
                <display value="womens-abuse-councellors"/>
              </securityLabel>
              <purpose>
                <display value="Women&#39;s Shelter"/>
              </purpose>
            </provision>
          </Consent>
        </contained>
        <status value="active"/>
        <name value="The W Womens Shelter"/>
        <telecom>
          <system value="url"/>
          <value value="https://exmaple.org/The-W-shelter"/>
        </telecom>
        <telecom>
          <extension url="http://hl7.org/fhir/uv/vhdir/StructureDefinition/usage-restriction">
            <valueReference>
              <reference value="#restrict"/>
            </valueReference>
          </extension>
          <system value="phone"/>
          <value value="555 administration"/>
        </telecom>
        <address>
          <extension url="http://hl7.org/fhir/uv/vhdir/StructureDefinition/usage-restriction">
            <valueReference>
              <reference value="#restrict"/>
            </valueReference>
          </extension>
          <line value="3300 Washtenaw Avenue, Suite 227"/>
          <city value="Ann Arbor"/>
          <state value="MI"/>
          <postalCode value="48104"/>
          <country value="USA"/>
        </address>
      </Location>
    </resource>
  </entry>
</Bundle>